# STEVAL-MKI208V1K (IIS3DWB) 

time[us],acc_x[mg],acc_y[mg],acc_z[mg],acc_x[LSB],acc_y[LSB],acc_z[LSB],int_1
7150443,18.849,-78.080,974.658,309,-1280,15978,0
7150481,21.594,-99.308,959.774,354,-1628,15734,0
7150518,45.506,-124.562,970.510,746,-2042,15910,0
7150555,11.956,-143.106,953.674,196,-2346,15634,0
7150594,64.294,-131.394,959.774,1054,-2154,15734,0
7150630,54.656,-167.506,944.768,896,-2746,15488,0
7150667,45.506,-158.478,949.465,746,-2598,15565,0
7150703,66.612,-180.133,958.310,1092,-2953,15710,0
7150741,88.206,-157.990,954.162,1446,-2590,15642,0
7150778,94.672,-177.937,960.689,1552,-2917,15749,0
7150815,112.118,-154.391,956.907,1838,-2531,15687,0
7150852,84.546,-185.562,976.976,1386,-3042,16016,0
7150890,110.715,-174.704,998.082,1815,-2864,16362,0
7150927,97.417,-222.650,1017.663,1597,-3650,16683,0
7150964,82.716,-196.420,1015.772,1356,-3220,16652,0
7151003,63.806,-207.278,1023.275,1046,-3398,16775,0
7151040,60.207,-189.222,1031.205,987,-3102,16905,0
7151076,33.977,-178.791,1084.885,557,-2931,17785,0
7151113,17.934,-204.106,1082.567,294,-3346,17747,0
7151150,39.040,-183.305,1084.946,640,-3005,17786,0
7151187,10.980,-194.590,1113.372,180,-3190,18252,0
7151224,31.720,-175.192,1109.712,520,-2872,18192,0
7151262,15.616,-139.019,1123.681,256,-2279,18421,0
7151298,32.208,-119.621,1143.750,528,-1961,18750,0
7151336,11.041,-102.907,1161.989,181,-1687,19049,0
7151373,20.252,-66.734,1156.377,332,-1094,18957,0
7151412,19.764,-29.707,1156.804,324,-487,18964,0
7151447,-20.679,-17.080,1145.153,-339,-280,18773,0
7151484,-3.660,48.922,1156.377,-60,802,18957,0
7151522,-18.361,58.438,1136.796,-301,958,18636,0
7151558,-18.361,73.322,1149.850,-301,1202,18850,0
7151596,-14.274,97.234,1172.237,-234,1594,19217,0
7151634,-45.018,125.660,1152.168,-738,2060,18888,0
7151671,-34.465,168.604,1159.183,-565,2764,19003,0
7151707,-62.037,137.006,1173.640,-1017,2246,19240,0
7151746,-66.124,171.288,1140.029,-1084,2808,18689,0
7151783,-56.059,174.460,1131.611,-919,2860,18551,0
7151819,-82.716,170.922,1145.641,-1356,2802,18781,0
7151855,-54.656,188.978,1116.666,-896,3098,18306,0
7151893,-65.697,201.605,1112.030,-1077,3305,18230,0
7151931,-63.867,199.836,1118.496,-1047,3276,18336,0
7151968,-31.232,202.520,1068.110,-512,3320,17510,0
7152006,-13.786,173.606,1111.542,-226,2846,18222,0
7152044,-11.468,165.920,1070.428,-188,2720,17548,0
7152084,40.382,166.347,1035.414,662,2727,16974,0
7152117,12.871,145.119,1051.274,211,2379,17234,0
7152153,25.254,152.805,1043.832,414,2505,17112,0
7152195,49.593,149.206,996.618,813,2446,16338,0
7152232,18.849,90.463,1005.524,309,1483,16484,0
7152266,29.829,96.380,995.703,489,1580,16323,0
7152303,16.958,38.064,978.440,278,624,16040,0
7152343,18.422,25.376,973.316,302,416,15956,0
7152377,-2.745,-23.363,996.191,-45,-383,16331,0
7152414,38.613,-15.250,963.922,633,-250,15802,0
7152453,34.465,-70.821,979.355,565,-1161,16055,0
7152491,18.422,-94.306,951.356,302,-1546,15596,0
7152525,33.977,-114.680,974.658,557,-1880,15978,0
7152563,33.977,-129.076,971.852,557,-2116,15932,0
7152601,38.552,-140.422,966.728,632,-2302,15848,0
7152637,60.146,-159.820,958.798,986,-2620,15718,0
7152674,65.697,-150.304,950.868,1077,-2464,15588,0
7152711,53.741,-159.820,965.813,881,-2620,15833,0
7152748,61.549,-179.706,964.410,1009,-2946,15810,0
7152787,81.801,-173.362,942.938,1341,-2842,15458,0
7152823,80.825,-177.449,971.425,1325,-2909,15925,0
7152860,101.504,-181.048,959.286,1664,-2968,15726,0
7152897,76.250,-202.276,985.455,1250,-3316,16155,0
7152934,95.099,-193.248,990.091,1559,-3168,16231,0
7152973,69.418,-186.050,989.176,1138,-3050,16216,0
7153009,63.806,-210.877,1033.584,1046,-3457,16944,0
7153046,55.571,-188.246,1037.244,911,-3086,17004,0
7153083,14.274,-199.104,1077.443,234,-3264,17663,0
7153120,31.720,-192.760,1072.746,520,-3160,17586,0
7153158,22.997,-198.677,1067.195,377,-3257,17495,0
7153195,16.531,-201.849,1092.876,271,-3309,17916,0
7153231,10.614,-178.364,1116.666,174,-2924,18306,0
7153269,23.424,-142.252,1113.860,384,-2332,18260,0
7153308,13.298,-126.392,1129.720,218,-2072,18520,0
7153347,5.002,-108.336,1148.874,82,-1776,18834,0
7153381,3.233,-61.793,1134.905,53,-1013,18605,0
7153418,10.553,-39.223,1134.905,173,-643,18605,0
7153457,-18.849,-5.734,1142.347,-309,-94,18727,0
7153496,-8.296,31.720,1133.502,-136,520,18582,0
7153529,-5.490,73.322,1135.332,-90,1202,18612,0
7153566,-21.594,71.065,1128.378,-354,1165,18498,0
7153603,-41.846,116.266,1139.541,-686,1906,18681,0
7153640,-42.212,113.460,1149.850,-692,1860,18850,0
7153678,-63.379,134.261,1144.238,-1039,2201,18758,0
7153715,-50.996,155.977,1140.029,-836,2557,18689,0
7153754,-61.976,155.062,1114.348,-1016,2542,18268,0
7153792,-70.272,165.432,1139.541,-1152,2712,18681,0
7153826,-50.996,200.202,1113.311,-836,3282,18251,0
7153866,-90.951,169.519,1118.008,-1491,2779,18328,0
7153901,-65.270,208.376,1087.569,-1070,3416,17829,0
7153937,-52.338,205.692,1099.281,-858,3372,18021,0
7153975,-50.081,188.978,1087.142,-821,3098,17822,0
7154012,-15.128,182.146,1069.391,-248,2986,17531,0
7154049,21.106,166.408,1049.749,346,2728,17209,0
7154090,31.720,162.748,1029.680,520,2668,16880,0
7154124,30.744,142.435,1010.038,504,2335,16558,0
7154161,30.744,135.176,1011.441,504,2216,16581,0
7154198,22.936,130.235,1016.138,376,2135,16658,0
7154235,16.043,114.436,967.094,263,1876,15854,0
7154272,22.082,66.063,1004.914,362,1083,16474,0
7154310,24.400,40.321,961.970,400,661,15770,0
7154348,15.616,11.407,961.055,256,187,15755,0
7154388,17.934,-1.220,936.716,294,-20,15356,0
7154422,10.553,-54.534,959.652,173,-894,15732,0
7154458,41.785,-72.651,934.398,685,-1191,15318,0
7154499,15.616,-139.080,952.149,256,-2280,15609,0
7154535,38.613,-100.162,930.677,633,-1642,15257,0
7154570,26.169,-146.705,928.359,429,-2405,15219,0
7154609,45.506,-153.049,932.995,746,-2509,15295,0
7154647,57.889,-150.792,918.538,949,-2472,15058,0
7154682,71.248,-176.534,926.956,1168,-2894,15196,0
7154718,66.612,-165.249,928.359,1092,-2709,15219,0
7154757,68.930,-165.249,932.995,1130,-2709,15295,0
7154793,85.461,-162.504,932.568,1401,-2664,15288,0
7154830,90.524,-192.394,962.458,1484,-3154,15778,0
7154867,125.416,-176.107,954.955,2056,-2887,15655,0
7154904,89.182,-195.993,975.512,1462,-3213,15992,0
7154942,95.526,-205.448,959.652,1566,-3368,15732,0
7154979,71.614,-219.478,1013.820,1174,-3598,16620,0
7155015,76.738,-193.248,1015.650,1258,-3168,16650,0
7155054,30.744,-212.219,1046.516,504,-3479,17156,0
7155092,18.361,-191.906,1049.322,301,-3146,17202,0
7155128,27.572,-209.047,1059.570,452,-3427,17370,0
7155165,22.997,-207.705,1089.948,377,-3405,17868,0
7155203,22.509,-181.048,1096.048,369,-2968,17968,0
7155241,8.296,-172.020,1107.211,136,-2820,18151,0
7155276,20.191,-130.906,1104.893,331,-2146,18113,0
7155318,8.296,-123.220,1145.031,136,-2020,18771,0
7155353,19.276,-85.705,1136.613,316,-1405,18633,0
7155388,-5.978,-77.592,1147.898,-98,-1272,18818,0
7155424,17.019,-30.134,1124.962,279,-494,18442,0
7155464,-36.234,-8.906,1148.752,-594,-146,18832,0
7155499,9.150,61.122,1124.962,150,1002,18442,0
7155537,-41.785,53.009,1144.543,-685,869,18763,0
7155574,-6.893,103.578,1127.768,-113,1698,18488,0
7155610,-51.911,93.635,1146.922,-851,1535,18802,0
7155648,-31.232,149.206,1130.574,-512,2446,18534,0
7155685,-54.229,134.261,1145.946,-889,2201,18786,0
7155722,-60.634,166.774,1154.364,-994,2734,18924,0
7155759,-67.527,167.750,1131.001,-1107,2750,18541,0
7155797,-51.484,176.290,1116.117,-844,2890,18297,0
7155834,-63.867,183.976,1128.256,-1047,3016,18496,0
7155871,-68.442,185.806,1117.520,-1122,3046,18320,0
7155908,-78.568,207.888,1103.490,-1288,3408,18090,0
7155945,-62.464,203.862,1077.321,-1024,3342,17661,0
7155982,-16.531,181.719,1088.545,-271,2979,17845,0
7156020,-20.679,189.405,1057.252,-339,3105,17332,0
7156058,15.189,168.177,1043.710,249,2757,17110,0
7156095,15.616,169.092,1029.680,256,2772,16880,0
7156132,28.060,149.694,1021.262,460,2454,16742,0
7156169,10.126,144.204,1014.735,166,2364,16635,0
7156207,31.232,114.375,1011.441,512,1875,16581,0
7156243,28.487,81.435,1003.999,467,1335,16459,0
7156280,31.720,57.950,990.884,520,950,16244,0
7156320,13.298,21.777,968.070,218,357,15870,0
7156354,-2.745,14.152,981.612,-45,232,16092,0
7156395,28.975,-25.193,947.025,475,-413,15525,0
7156429,25.254,-50.508,977.830,414,-828,16030,0
7156465,19.276,-97.478,965.264,316,-1598,15824,0
7156503,40.016,-110.593,960.140,656,-1813,15740,0
7156540,38.613,-131.821,933.483,633,-2161,15303,0
7156577,44.103,-139.507,973.194,723,-2287,15954,0
7156614,63.379,-137.250,940.986,1039,-2250,15426,0
7156651,53.741,-152.134,963.800,881,-2494,15800,0
7156689,80.886,-148.962,953.064,1326,-2442,15624,0
7156726,66.124,-176.534,962.397,1084,-2894,15777,0
7156762,53.741,-177.022,956.358,881,-2902,15678,0
7156800,87.291,-157.136,964.776,1431,-2576,15816,0
7156837,115.290,-166.652,965.264,1890,-2732,15824,0
7156875,108.458,-175.192,1001.254,1778,-2872,16414,0
7156911,88.206,-190.564,994.666,1446,-3124,16306,0
7156949,98.332,-206.790,1023.641,1612,-3390,16781,0
7156986,73.078,-197.274,1010.526,1198,-3234,16566,0
7157023,54.656,-205.448,1035.292,896,-3368,16972,0
7157062,28.975,-197.335,1041.392,475,-3235,17072,0
7157099,28.060,-206.363,1080.127,460,-3383,17707,0
7157135,20.191,-190.991,1062.376,331,-3131,17416,0
7157174,25.742,-203.679,1085.739,422,-3339,17799,0
7157211,34.892,-183.366,1099.281,572,-3006,18021,0
7157246,17.446,-162.992,1112.823,286,-2672,18243,0
7157283,24.827,-134.078,1107.211,407,-2198,18151,0
7157323,1.830,-120.963,1151.558,30,-1983,18878,0
7157360,11.041,-82.594,1141.798,181,-1354,18718,0
7157395,8.296,-67.222,1145.946,136,-1102,18786,0
7157432,-5.978,-39.650,1134.295,-98,-650,18595,0
7157469,11.468,34.404,1142.713,188,564,18733,0
7157507,-14.701,58.377,1133.807,-241,957,18587,0
7157544,-28.975,60.207,1153.937,-475,987,18917,0
7157581,-30.317,99.918,1144.543,-497,1638,18763,0
7157619,-25.254,131.577,1144.116,-414,2157,18756,0
7157655,-55.571,133.346,1153.449,-911,2186,18909,0
7157692,-52.338,165.005,1158.146,-858,2705,18986,0
7157730,-58.804,156.404,1147.837,-964,2564,18817,0
7157766,-74.908,181.292,1151.070,-1228,2972,18870,0
7157805,-55.571,173.606,1139.419,-911,2846,18679,0
7157842,-70.272,177.632,1117.947,-1152,2912,18327,0
7157878,-61.061,199.348,1111.908,-1001,3268,18228,0
7157916,-46.848,209.718,1088.057,-768,3438,17837,0
7157952,-46.848,189.893,1100.196,-768,3113,18036,0
7157990,-27.572,212.890,1059.570,-452,3490,17370,0
7158028,-1.830,186.233,1077.809,-30,3053,17669,0
7158064,10.126,172.264,1027.362,166,2824,16842,0
7158102,38.552,151.463,1045.540,632,2483,17140,0
7158138,5.490,150.548,1036.695,90,2468,16995,0
7158175,39.040,130.662,1016.138,640,2142,16658,0
7158214,27.084,108.580,1012.356,444,1780,16596,0
7158252,23.424,85.949,994.666,384,1409,16306,0
7158287,26.657,52.094,981.124,437,854,16084,0
7158324,5.978,17.751,972.706,98,291,15946,0
7158361,25.742,3.294,972.706,422,54,15946,0
7158398,15.189,-26.108,963.373,249,-428,15793,0
7158436,19.276,-71.248,969.412,316,-1168,15892,0
7158473,16.104,-101.077,951.234,264,-1657,15594,0
7158513,37.637,-119.194,959.164,617,-1954,15724,0
7158549,32.635,-141.764,959.652,535,-2324,15732,0
7158585,33.062,-143.960,945.622,542,-2360,15502,0
7158625,55.632,-145.790,954.894,912,-2390,15654,0
7158663,39.040,-165.249,964.776,640,-2709,15816,0
7158696,77.226,-156.221,931.165,1266,-2561,15265,0
7158733,42.273,-181.475,932.995,693,-2975,15295,0
7158773,72.102,-179.218,952.576,1182,-2938,15616,0
7158807,96.502,-181.963,954.528,1582,-2983,15648,0
7158845,80.398,-201.361,941.840,1318,-3301,15440,0
7158882,107.970,-175.192,985.272,1770,-2872,16152,0
7158919,79.056,-213.134,985.760,1296,-3494,16160,0
7158956,84.546,-203.618,999.790,1386,-3338,16390,0
7158993,50.081,-210.450,1023.641,821,-3450,16781,0
7159032,62.952,-199.104,1018.944,1032,-3264,16704,0
7159067,8.296,-190.564,1072.624,136,-3124,17584,0
7159105,25.742,-199.592,1081.530,422,-3272,17730,0
7159142,32.635,-187.819,1108.614,535,-3079,18174,0
7159179,16.104,-195.078,1094.157,264,-3198,17937,0
7159216,20.191,-189.222,1104.405,331,-3102,18105,0
7159254,0.000,-160.674,1115.202,0,-2634,18282,0
7159291,17.446,-135.847,1124.962,286,-2227,18442,0
7159328,9.638,-99.308,1127.280,158,-1628,18480,0
7159366,-5.978,-80.764,1138.504,-98,-1324,18664,0
7159401,2.806,-53.192,1146.922,46,-872,18802,0
7159439,16.104,2.379,1111.420,264,39,18220,0
7159477,-26.230,12.749,1136.186,-430,209,18626,0
7159515,-10.126,67.405,1128.195,-166,1105,18495,0
7159550,-28.487,72.346,1154.364,-467,1186,18924,0
7159588,-27.572,111.264,1138.992,-452,1824,18672,0
7159627,-36.722,116.632,1134.783,-602,1912,18603,0
7159665,-44.530,130.235,1138.992,-730,2135,18672,0
7159701,-41.785,154.147,1122.644,-685,2527,18404,0
7159737,-63.440,164.578,1150.216,-1040,2698,18856,0
7159774,-31.232,191.662,1142.225,-512,3142,18725,0
7159815,-68.930,174.948,1123.986,-1130,2868,18426,0
7159852,-68.015,189.832,1138.504,-1115,3112,18664,0
7159886,-56.486,191.174,1096.475,-926,3134,17975,0
7159923,-68.930,206.119,1121.180,-1130,3379,18380,0
7159962,-42.273,201.544,1085.678,-693,3304,17798,0
7159997,-21.594,186.233,1068.476,-354,3053,17516,0
7160034,29.890,192.089,1043.222,490,3149,17102,0
7160071,9.638,156.892,1062.376,158,2572,17416,0
7160108,29.402,158.234,1036.756,482,2594,16996,0
7160145,21.106,137.494,1000.278,346,2254,16398,0
7160183,35.868,113.948,1009.123,588,1868,16543,0
7160220,30.805,106.750,994.178,505,1750,16298,0
7160259,26.230,60.634,991.860,430,994,16260,0
7160296,21.106,62.037,977.830,346,1017,16030,0
7160334,6.466,31.293,976.000,106,513,16000,0
7160369,22.936,-6.710,967.582,376,-110,15862,0
7160406,19.764,-31.110,969.412,324,-510,15892,0
7160443,14.274,-70.394,951.234,234,-1154,15594,0
7160480,17.934,-100.223,962.458,294,-1643,15778,0
7160518,44.103,-120.475,943.731,723,-1975,15471,0
7160555,26.230,-126.819,946.110,430,-2079,15510,0
7160592,60.634,-133.590,955.443,994,-2190,15663,0
7160629,46.848,-146.278,949.343,768,-2398,15563,0
7160666,64.294,-164.334,933.910,1054,-2694,15310,0
7160703,74.420,-170.251,955.870,1220,-2791,15670,0
7160741,75.335,-182.878,951.234,1235,-2998,15594,0
7160778,81.801,-158.478,930.677,1341,-2598,15257,0
7160814,76.250,-181.536,983.442,1250,-2976,16122,0
7160851,114.802,-162.077,962.458,1882,-2657,15778,0
7160890,93.696,-190.991,969.412,1536,-3131,15892,0
7160926,94.184,-207.278,992.836,1544,-3398,16276,0
7160967,74.420,-207.278,1030.168,1220,-3398,16888,0
7161000,58.316,-201.849,1021.262,956,-3309,16742,0
7161038,56.059,-189.588,1027.362,919,-3108,16842,0
7161075,20.679,-199.592,1050.664,339,-3272,17224,0
7161112,26.596,-195.078,1067.500,436,-3198,17500,0
7161151,22.082,-218.563,1078.724,362,-3583,17684,0
7161191,22.509,-181.963,1102.575,369,-2983,18075,0
7161224,15.616,-176.107,1122.644,256,-2887,18404,0
7161261,16.104,-155.733,1111.420,264,-2553,18220,0
7161301,9.150,-144.021,1140.334,150,-2361,18694,0
7161339,21.106,-104.737,1148.325,346,-1717,18825,0
7161372,9.150,-83.936,1136.186,150,-1376,18626,0
7161409,25.254,-33.794,1131.062,414,-554,18542,0
7161450,-22.082,-31.049,1168.882,-362,-509,19162,0
7161484,8.296,33.977,1142.225,136,557,18725,0
7161521,-1.342,54.290,1157.658,-22,890,18978,0
7161560,-20.618,62.037,1156.255,-338,1017,18955,0
7161598,-27.999,100.406,1149.240,-459,1646,18840,0
7161633,-53.314,107.604,1163.697,-874,1764,19077,0
7161670,-35.868,137.921,1156.743,-588,2261,18963,0
7161710,-55.632,133.407,1168.394,-912,2187,19154,0
7161744,-38.613,167.750,1138.504,-633,2750,18664,0
7161781,-73.505,156.892,1136.186,-1205,2572,18626,0
7161818,-65.697,175.436,1137.101,-1077,2876,18641,0
7161860,-69.845,195.749,1123.559,-1145,3209,18419,0
7161893,-83.204,188.978,1111.908,-1364,3098,18228,0
7161930,-47.824,192.150,1089.033,-784,3150,17853,0
7161968,-32.208,207.522,1074.515,-528,3402,17615,0
7162005,-12.444,186.233,1096.902,-204,3053,17982,0
7162041,-1.403,168.177,1068.476,-23,2757,17516,0
7162078,36.722,175.375,1052.128,602,2875,17248,0
7162116,6.893,154.208,1033.462,113,2528,16942,0
7162153,26.169,126.636,1018.456,429,2076,16696,0
7162190,10.126,146.461,1009.184,166,2401,16544,0
7162227,11.956,86.437,1011.929,196,1417,16589,0
7162264,22.997,83.265,988.566,377,1365,16206,0
7162302,18.788,45.750,985.333,308,750,16153,0
7162340,19.276,21.350,953.552,316,350,15632,0
7162376,4.148,-21.106,995.154,68,-346,16314,0
7162413,27.084,-29.280,949.831,444,-480,15571,0
7162451,42.273,-77.104,985.333,693,-1264,16153,0
7162489,16.104,-101.077,978.318,264,-1657,16038,0
7162524,49.166,-120.048,957.761,806,-1968,15701,0
7162563,20.252,-127.734,974.536,332,-2094,15976,0
7162600,69.418,-140.422,937.692,1138,-2302,15372,0
7162640,39.955,-170.190,981.124,655,-2790,16084,0
7162673,64.782,-161.650,943.792,1062,-2650,15472,0
7162711,60.146,-172.874,954.528,986,-2834,15648,0
7162751,68.442,-170.678,948.916,1122,-2798,15556,0
7162789,78.995,-176.534,945.622,1295,-2894,15502,0
7162822,76.250,-186.477,968.924,1250,-3057,15884,0
7162859,107.970,-181.048,974.109,1770,-2968,15969,0
7162897,109.800,-170.678,987.224,1800,-2798,16184,0
7162933,71.675,-190.991,988.566,1175,-3131,16206,0
7162972,78.995,-214.964,1019.432,1295,-3524,16712,0
7163008,61.976,-182.451,1016.626,1016,-2991,16666,0
7163045,28.975,-201.361,1063.779,475,-3301,17439,0
7163082,43.676,-190.564,1080.615,716,-3124,17715,0
7163121,25.254,-184.708,1096.475,414,-3028,17975,0
7163157,5.490,-185.989,1103.490,90,-3049,18090,0
7163194,15.128,-193.248,1099.281,248,-3168,18021,0
7163231,11.956,-175.192,1143.628,196,-2872,18748,0
7163269,7.320,-139.080,1115.629,120,-2280,18289,0
7163305,25.742,-116.022,1148.752,422,-1902,18832,0
7163343,7.320,-108.824,1158.756,120,-1784,18996,0
7163379,32.147,-49.593,1138.626,527,-813,18666,0
7163419,-7.808,-53.192,1161.013,-128,-872,19033,0
7163455,4.575,-0.305,1147.959,75,-5,18819,0
7163491,-12.871,27.206,1159.183,-211,446,19003,0
7163528,-12.383,67.893,1124.596,-203,1113,18436,0
7163564,-44.164,72.346,1156.377,-724,1186,18957,0
7163602,-16.531,133.346,1128.805,-271,2186,18505,0
7163639,-74.420,122.549,1161.989,-1220,2009,19049,0
7163677,-60.634,141.093,1180.655,-994,2313,19355,0
7163717,-44.530,180.377,1145.580,-730,2957,18780,0
7163755,-67.527,150.548,1144.238,-1107,2468,18758,0
7163789,-68.930,186.660,1130.696,-1130,3060,18536,0
7163826,-67.100,184.464,1127.890,-1100,3024,18490,0
7163864,-72.590,189.832,1123.254,-1190,3112,18414,0
7163900,-70.760,205.692,1105.503,-1160,3372,18123,0
7163936,-45.933,210.206,1112.457,-753,3446,18237,0
7163977,-33.550,191.174,1081.164,-550,3134,17724,0
7164011,-5.978,194.834,1108.736,-98,3194,18176,0
7164048,14.762,166.835,1054.568,242,2735,17288,0
7164086,22.509,170.434,1032.608,369,2794,16928,0
7164123,40.870,157.746,1026.020,670,2586,16820,0
7164161,25.742,130.235,1022.299,422,2135,16759,0
7164199,41.358,131.150,999.912,678,2150,16392,0
7164234,20.252,91.866,1003.206,332,1506,16446,0
7164272,35.868,60.634,986.370,588,994,16170,0
7164309,13.786,43.920,984.052,226,720,16132,0
7164348,19.764,5.978,958.798,324,98,15718,0
7164383,28.914,1.037,982.649,474,17,16109,0
7164420,27.084,-55.449,991.982,444,-909,16262,0
7164457,42.700,-89.365,973.743,700,-1465,15963,0
7164494,42.212,-116.876,970.022,692,-1916,15902,0
7164531,29.402,-132.248,945.256,482,-2168,15496,0
7164569,45.994,-146.705,960.201,754,-2405,15741,0
7164607,34.404,-156.648,960.262,564,-2568,15742,0
7164644,60.146,-162.077,941.108,986,-2657,15428,0
7164680,70.760,-163.907,960.262,1160,-2687,15742,0
7164720,66.612,-169.763,960.689,1092,-2783,15749,0
7164755,90.524,-165.676,940.620,1484,-2716,15420,0
7164794,70.760,-165.249,966.301,1160,-2709,15841,0
7164829,93.269,-186.477,965.813,1529,-3057,15833,0
7164866,94.672,-177.022,983.076,1552,-2902,16116,0
7164903,92.842,-187.880,984.479,1522,-3080,16139,0
7164941,76.250,-209.047,987.834,1250,-3427,16194,0
7164978,87.291,-200.446,1007.354,1431,-3286,16514,0
7165017,35.807,-199.592,1022.787,587,-3272,16767,0
7165054,67.527,-187.819,1040.538,1107,-3079,17058,0
7165093,28.487,-192.821,1063.413,467,-3161,17433,0
7165127,24.827,-189.649,1065.304,407,-3109,17464,0
7165163,11.956,-199.592,1090.985,196,-3272,17885,0
7165201,6.466,-197.274,1099.830,106,-3234,18030,0
7165238,10.126,-168.848,1130.208,166,-2768,18528,0
7165275,-4.148,-161.589,1149.850,-68,-2649,18850,0
7165312,-8.723,-123.647,1157.292,-143,-2027,18972,0
7165351,31.232,-89.792,1155.401,512,-1472,18941,0
7165391,-7.808,-81.191,1164.307,-128,-1331,19087,0
7165425,18.361,-34.221,1127.890,301,-561,18490,0
7165461,-13.298,5.490,1140.944,-218,90,18704,0
7165502,-4.575,46.604,1151.192,-75,764,18872,0
7165540,-22.509,59.719,1159.610,-369,979,19010,0
7165573,-25.742,75.579,1140.944,-422,1239,18704,0
7165610,-31.720,106.750,1154.974,-520,1750,18934,0
7165647,-40.870,118.035,1149.362,-670,1935,18842,0
7165684,-45.018,154.635,1159.610,-738,2535,19010,0
7165721,-69.845,139.751,1157.292,-1145,2291,18972,0
7165759,-63.440,181.292,1163.880,-1040,2972,19080,0
7165795,-60.146,170.861,1147.959,-986,2801,18819,0
7165833,-82.716,165.005,1145.153,-1356,2705,18773,0
7165870,-81.740,178.120,1115.263,-1340,2920,18283,0
7165907,-70.760,194.346,1122.278,-1160,3186,18398,0
7165945,-50.508,198.433,1100.806,-828,3253,18046,0
7165982,-39.040,175.375,1103.124,-640,2875,18084,0
7166020,-5.978,180.804,1072.746,-98,2964,17586,0
7166058,5.490,159.576,1047.980,90,2616,17180,0
7166093,18.849,150.121,1031.205,309,2461,16905,0
7166130,34.892,172.203,1008.330,572,2823,16530,0
7166167,39.955,127.063,1008.818,655,2083,16538,0
7166204,21.167,116.266,1014.857,347,1906,16637,0
7166242,35.807,87.718,1016.748,587,1438,16668,0
7166279,29.890,66.490,983.564,490,1090,16124,0
7166315,19.764,32.208,988.688,324,528,16208,0
7166353,19.276,24.949,966.789,316,409,15849,0
7166390,34.465,-30.561,979.843,565,-501,16063,0
7166427,20.191,-55.022,951.356,331,-902,15596,0
7166465,19.276,-81.679,953.674,316,-1339,15634,0
7166501,29.829,-125.904,969.107,489,-2064,15887,0
7166539,39.955,-138.592,954.162,655,-2272,15642,0
7166577,54.656,-134.932,961.665,896,-2212,15765,0
7166613,55.632,-162.992,955.138,912,-2672,15658,0
7166652,46.421,-176.534,953.674,761,-2894,15634,0
7166688,84.973,-146.705,935.496,1393,-2405,15336,0
7166725,65.697,-172.508,983.076,1077,-2828,16116,0
7166763,85.888,-172.874,954.589,1408,-2834,15649,0
7166802,102.907,-161.162,970.937,1687,-2642,15917,0
7166837,70.272,-185.135,987.773,1152,-3035,16193,0
7166874,101.077,-171.593,980.758,1657,-2813,16078,0
7166910,80.886,-203.618,973.316,1326,-3338,15956,0
7166948,87.718,-197.335,995.215,1438,-3235,16315,0
7166985,81.740,-202.276,992.897,1340,-3316,16277,0
7167023,14.274,-199.104,1053.592,234,-3264,17272,0
7167061,53.314,-182.390,1048.041,874,-2990,17181,0
7167100,13.298,-185.562,1078.846,218,-3042,17686,0
7167134,28.060,-205.448,1105.442,460,-3368,18122,0
7167171,38.125,-190.564,1111.969,625,-3124,18229,0
7167212,11.041,-193.248,1098.488,181,-3168,18008,0
7167250,20.191,-173.850,1123.681,331,-2850,18421,0
7167283,22.082,-142.679,1107.760,362,-2339,18160,0
7167320,22.509,-108.763,1153.571,369,-1783,18911,0
7167359,16.043,-101.992,1133.929,263,-1672,18589,0
7167394,12.383,-59.536,1146.556,203,-976,18796,0
7167431,-15.616,-33.794,1153.571,-256,-554,18911,0
7167469,-4.148,24.949,1138.626,-68,409,18666,0
7167505,-5.002,55.266,1158.695,-82,906,18995,0
7167543,-11.956,69.235,1163.392,-196,1135,19072,0
7167580,-17.934,94.062,1155.889,-294,1542,18949,0
7167616,-32.147,112.118,1162.416,-527,1838,19056,0
7167654,-50.996,128.832,1139.541,-836,2112,18681,0
7167691,-55.632,141.947,1171.810,-912,2327,19210,0
7167728,-54.168,155.977,1171.810,-888,2557,19210,0
7167766,-58.804,177.632,1143.262,-964,2912,18742,0
7167802,-83.143,162.260,1153.083,-1363,2660,18903,0
7167840,-54.168,191.662,1124.596,-888,3142,18436,0
7167877,-86.376,176.778,1120.387,-1416,2898,18367,0
7167914,-67.527,194.346,1113.372,-1107,3186,18252,0
7167952,-37.698,193.919,1084.458,-618,3179,17778,0
7167989,-43.615,185.806,1094.218,-715,3046,17938,0
7168028,0.000,196.176,1052.738,0,3216,17258,0
7168064,15.128,155.977,1057.374,248,2557,17334,0
7168099,16.958,143.350,1047.553,278,2350,17173,0
7168138,47.336,152.866,1026.081,776,2506,16821,0
7168174,13.786,138.348,1006.866,226,2268,16506,0
7168213,27.084,99.979,1034.438,444,1639,16958,0
7168253,51.911,91.378,992.470,851,1498,16270,0
7168286,29.402,60.146,979.782,482,986,16062,0
7168323,17.446,17.751,971.852,286,291,15932,0
7168361,28.487,10.004,987.773,467,164,16193,0
7168398,18.788,-21.594,975.146,308,-354,15986,0
7168435,34.892,-68.991,966.728,572,-1131,15848,0
7168471,21.594,-89.304,974.719,354,-1464,15979,0
7168511,39.040,-116.449,959.286,640,-1909,15726,0
7168549,39.040,-149.877,949.038,640,-2457,15558,0
7168584,43.188,-132.248,961.177,708,-2168,15757,0
7168621,48.678,-153.537,971.852,798,-2517,15932,0
7168658,48.251,-177.449,970.022,791,-2909,15902,0
7168695,57.462,-171.105,957.456,942,-2805,15696,0
7168733,91.866,-166.591,951.844,1506,-2731,15604,0
7168770,73.078,-177.022,948.062,1198,-2902,15542,0
7168806,87.718,-160.308,979.355,1438,-2628,16055,0
7168846,99.186,-157.563,982.588,1626,-2583,16108,0
7168883,96.014,-180.133,989.176,1574,-2953,16216,0
7168918,103.334,-201.361,992.470,1694,-3301,16270,0
7168956,80.886,-206.363,1017.236,1326,-3383,16676,0
7168993,70.760,-191.418,1015.772,1160,-3138,16652,0
7169030,49.654,-205.021,1025.654,814,-3361,16814,0
7169067,40.870,-190.991,1055.910,670,-3131,17310,0
7169104,45.506,-194.590,1077.870,746,-3190,17670,0
7169142,13.298,-204.106,1098.000,218,-3346,18000,0
7169178,20.679,-201.849,1105.442,339,-3309,18122,0
7169216,14.701,-186.477,1129.232,241,-3057,18512,0
7169254,18.849,-146.705,1137.650,309,-2405,18650,0
7169291,22.936,-143.960,1131.611,376,-2360,18551,0
7169327,19.764,-105.164,1167.113,324,-1724,19133,0
7169364,17.934,-94.794,1155.462,294,-1554,18942,0
7169402,13.298,-45.994,1158.268,218,-754,18988,0
7169441,-8.296,-24.278,1157.780,-136,-398,18980,0
7169476,-8.784,17.751,1150.338,-144,291,18858,0
7169513,0.915,60.207,1148.020,15,987,18820,0
7169550,-21.594,65.148,1171.322,-354,1068,19202,0
7169587,-18.361,91.378,1152.656,-301,1498,18896,0
7169624,-40.443,97.722,1171.322,-663,1602,19202,0
7169661,-19.276,128.832,1148.874,-316,2112,18834,0
7169702,-49.166,141.520,1194.685,-806,2320,19585,0
7169740,-53.741,151.036,1153.083,-881,2476,18903,0
7169773,-72.163,168.604,1175.470,-1183,2764,19270,0
7169810,-66.612,193.431,1145.153,-1092,3171,18773,0
7169848,-85.888,175.436,1143.262,-1408,2876,18742,0
7169884,-72.102,191.662,1105.442,-1182,3142,18122,0
7169922,-70.272,189.832,1125.572,-1152,3112,18452,0
7169959,-33.550,189.893,1101.294,-550,3113,18054,0
7169996,-11.956,207.461,1082.140,-196,3401,17740,0
7170033,-19.276,158.234,1083.055,-316,2594,17755,0
7170070,32.147,169.946,1043.832,527,2786,17112,0
7170107,9.211,155.062,1040.050,151,2542,17050,0
7170145,34.465,146.949,1034.926,565,2409,16966,0
7170182,22.509,122.061,1018.578,369,2001,16698,0
7170219,36.295,118.950,1019.554,595,1950,16714,0
7170256,19.276,65.636,1005.036,316,1076,16476,0
7170294,32.147,63.806,976.061,527,1046,16001,0
7170330,18.849,21.350,977.952,309,350,16032,0
7170368,13.359,-17.080,983.076,219,-280,16116,0
7170405,30.744,-27.450,973.316,504,-450,15956,0
7170442,32.635,-89.792,976.549,535,-1472,16009,0
7170479,36.722,-97.478,968.619,602,-1598,15879,0
7170516,47.336,-121.390,963.434,776,-1990,15794,0
7170555,14.274,-148.535,960.689,234,-2435,15749,0
7170591,49.654,-142.618,957.456,814,-2338,15696,0
7170628,55.998,-148.962,947.147,918,-2442,15527,0
7170665,59.292,-134.505,942.023,972,-2205,15443,0
7170704,61.549,-184.220,962.092,1009,-3020,15772,0
7170739,77.653,-171.166,950.441,1273,-2806,15581,0
7170777,84.058,-171.105,936.838,1378,-2805,15358,0
7170817,89.609,-163.419,955.565,1469,-2679,15665,0
7170851,94.611,-177.449,988.688,1551,-2909,16208,0
7170888,79.483,-191.418,987.285,1303,-3138,16185,0
7170925,93.269,-199.592,991.067,1529,-3272,16247,0
7170963,70.760,-203.618,1010.160,1160,-3338,16560,0
7171000,62.952,-213.134,1026.996,1032,-3494,16836,0
7171036,45.018,-208.132,1029.314,738,-3412,16874,0
7171074,32.635,-204.106,1082.567,535,-3346,17747,0
7171111,12.444,-199.104,1082.567,204,-3264,17747,0
7171152,35.868,-212.707,1093.791,588,-3487,17931,0
7171186,34.404,-191.906,1076.955,564,-3146,17655,0
7171224,16.104,-197.762,1108.248,264,-3242,18168,0
7171263,17.934,-153.476,1139.053,294,-2516,18673,0
7171301,26.657,-116.449,1149.850,437,-1909,18850,0
7171335,22.997,-113.277,1140.517,377,-1857,18697,0
7171372,27.084,-62.220,1115.690,444,-1020,18290,0
7171409,2.745,-67.649,1168.516,45,-1109,19156,0
7171445,20.679,7.808,1147.044,339,128,18804,0
7171483,-3.233,30.866,1148.874,-53,506,18834,0
7171520,-13.786,49.349,1168.516,-226,809,19156,0
7171557,-8.723,83.692,1160.586,-143,1372,19026,0
7171595,-17.019,109.007,1136.735,-279,1787,18635,0
7171631,-48.251,113.948,1176.446,-791,1868,19286,0
7171671,-58.804,123.952,1162.477,-964,2032,19057,0
7171706,-51.911,172.264,1177.849,-851,2824,19309,0
7171743,-60.146,173.118,1161.928,-986,2838,19048,0
7171780,-66.612,160.064,1177.361,-1092,2624,19301,0
7171817,-67.954,185.806,1137.223,-1114,3046,18643,0
7171854,-67.527,186.233,1151.680,-1107,3053,18880,0
7171892,-82.716,183.549,1131.611,-1356,3009,18551,0
7171929,-69.357,202.520,1113.372,-1137,3320,18252,0
7171967,-47.763,194.834,1118.984,-783,3194,18344,0
7172003,-35.380,182.634,1073.722,-580,2994,17602,0
7172040,17.934,162.260,1071.343,294,2660,17563,0
7172078,15.128,141.520,1033.096,248,2320,16936,0
7172114,50.081,144.692,1048.468,821,2372,17188,0
7172153,28.060,139.690,1024.678,460,2290,16798,0
7172190,18.849,140.605,1013.454,309,2305,16614,0
7172227,33.550,107.177,977.464,550,1757,16024,0
7172265,24.766,75.579,1005.036,406,1239,16476,0
7172302,24.400,48.922,980.270,400,802,16070,0
7172341,-3.172,-3.538,984.967,-52,-58,16147,0
7172376,29.402,4.148,953.674,482,68,15634,0
7172412,10.126,-41.480,1002.230,166,-680,16430,0
7172453,16.104,-64.050,961.604,264,-1050,15764,0
7172491,25.254,-103.334,969.534,414,-1694,15894,0
7172524,46.421,-125.904,957.883,761,-2064,15703,0
7172561,34.892,-130.906,948.062,572,-2146,15542,0
7172602,54.229,-155.306,941.108,889,-2546,15428,0
7172640,49.166,-152.622,955.992,806,-2502,15672,0
7172673,57.889,-167.506,984.479,949,-2746,16139,0
7172709,80.886,-165.737,949.465,1326,-2717,15565,0
7172749,73.505,-189.588,941.535,1205,-3108,15435,0
7172784,63.867,-158.051,960.201,1047,-2591,15741,0
7172821,83.631,-172.020,947.086,1371,-2820,15526,0
7172858,89.060,-187.819,956.358,1460,-3079,15678,0
7172895,83.143,-198.616,981.124,1363,-3256,16084,0
7172932,97.844,-188.246,993.690,1604,-3086,16290,0
7172970,47.824,-217.221,1045.540,784,-3561,17140,0
7173011,56.974,-194.590,1025.471,934,-3190,16811,0
7173044,37.698,-207.278,1040.904,618,-3398,17064,0
7173082,32.635,-186.904,1044.625,535,-3064,17125,0
7173118,14.701,-202.764,1088.545,241,-3324,17845,0
7173155,38.125,-187.392,1084.336,625,-3072,17776,0
7173195,20.191,-204.594,1118.435,331,-3354,18335,0
7173230,23.912,-178.852,1120.753,392,-2932,18373,0
7173267,28.914,-170.190,1137.528,474,-2790,18648,0
7173305,22.082,-146.705,1157.658,362,-2405,18978,0
7173342,13.786,-116.449,1131.001,226,-1909,18541,0
7173378,15.128,-76.677,1164.185,248,-1257,19085,0
7173416,2.745,-51.362,1129.598,45,-842,18518,0
7173454,10.980,-7.991,1139.480,180,-131,18680,0
7173494,-22.509,22.204,1154.852,-369,364,18932,0
7173527,-16.104,62.464,1154.852,-264,1024,18932,0
7173564,-28.914,84.119,1135.210,-474,1379,18610,0
7173602,-38.552,94.062,1140.822,-632,1542,18702,0
7173639,-42.700,139.690,1133.380,-700,2290,18580,0
7173676,-52.826,131.577,1152.046,-866,2157,18886,0
7173713,-51.911,153.720,1149.728,-851,2520,18848,0
7173754,-59.292,171.776,1138.016,-972,2816,18656,0
7173792,-62.037,183.122,1130.086,-1017,3002,18526,0
7173825,-77.226,159.576,1148.752,-1266,2616,18832,0
7173862,-56.486,206.119,1102.087,-926,3379,18067,0
7173899,-77.592,184.891,1119.838,-1272,3031,18358,0
7173936,-73.932,192.089,1104.405,-1212,3149,18105,0
7173978,-27.084,199.836,1086.166,-444,3276,17806,0
7174010,-47.763,181.780,1077.321,-783,2980,17661,0
7174048,-11.956,165.920,1087.630,-196,2720,17830,0
7174085,26.169,164.578,1044.625,429,2698,17125,0
7174122,25.742,158.234,1024.556,422,2594,16796,0
7174161,2.745,123.403,1025.959,45,2023,16819,0
7174197,24.400,130.662,1006.378,400,2142,16498,0
7174234,25.742,105.774,991.372,422,1734,16252,0
7174274,11.956,61.549,1004.487,196,1009,16467,0
7174310,17.446,34.465,997.472,286,565,16352,0
7174345,10.553,12.322,968.070,173,202,15870,0
7174382,13.298,-17.507,968.497,218,-287,15877,0
7174424,32.147,-50.020,961.970,527,-820,15770,0
7174456,11.956,-87.962,984.906,196,-1442,16146,0
7174494,48.251,-110.593,959.164,791,-1813,15724,0
7174531,37.210,-128.222,973.194,610,-2102,15954,0
7174568,45.018,-138.592,951.234,738,-2272,15594,0
7174605,40.443,-157.563,984.845,663,-2583,16145,0
7174642,55.632,-151.280,948.428,912,-2480,15548,0
7174680,55.144,-172.935,966.606,904,-2835,15846,0
7174716,86.376,-169.702,954.528,1416,-2782,15648,0
7174754,80.398,-179.218,979.721,1318,-2938,16061,0
7174791,102.419,-173.850,965.691,1679,-2850,15831,0
7174828,91.439,-181.048,987.651,1499,-2968,16191,0
7174866,96.014,-164.334,975.512,1574,-2694,15992,0
7174903,100.650,-191.418,986.248,1650,-3138,16168,0
7174941,89.121,-196.908,1021.262,1461,-3228,16742,0
7174977,84.546,-200.507,991.860,1386,-3287,16260,0
7175016,41.358,-204.106,1034.316,678,-3346,16956,0
7175052,27.572,-203.191,1076.406,452,-3331,17646,0
7175090,48.678,-160.735,1067.500,798,-2635,17500,0
7175126,10.614,-195.078,1113.311,174,-3198,18251,0
7175163,26.169,-195.505,1100.196,429,-3205,18036,0
7175202,17.934,-195.505,1119.838,294,-3205,18358,0
7175239,20.618,-173.850,1114.226,338,-2850,18266,0
7175274,31.232,-131.394,1139.907,512,-2154,18687,0
7175312,18.849,-127.246,1147.349,309,-2086,18809,0
7175350,27.084,-83.021,1141.798,444,-1361,18718,0
7175390,5.490,-68.137,1140.395,90,-1117,18695,0
7175424,-4.636,-45.506,1168.882,-76,-746,19162,0
7175460,9.638,23.180,1135.698,158,380,18618,0
7175498,-39.040,29.951,1182.851,-640,491,19391,0
7175535,-10.126,62.891,1156.255,-166,1031,18955,0
7175572,-32.635,85.949,1184.315,-535,1409,19415,0
7175609,-14.274,123.464,1132.892,-234,2024,18572,0
7175648,-42.700,111.264,1172.176,-700,1824,19216,0
7175688,-57.889,146.034,1159.549,-949,2394,19009,0
7175721,-50.081,170.434,1174.921,-821,2794,19261,0
7175757,-47.336,174.033,1170.712,-776,2853,19192,0
7175796,-60.634,178.608,1121.668,-994,2928,18388,0
7175832,-66.124,175.436,1145.519,-1084,2876,18779,0
7175869,-84.058,199.775,1137.589,-1378,3275,18649,0
7175906,-66.124,185.318,1127.280,-1084,3038,18480,0
7175944,-72.102,224.175,1111.908,-1182,3675,18228,0
7175981,-34.465,208.864,1113.250,-565,3424,18250,0
7176018,-1.830,194.346,1088.545,-30,3186,17845,0
7176055,16.531,176.778,1067.500,271,2898,17500,0
7176092,19.276,137.921,1059.570,316,2261,17370,0
7176129,26.657,154.574,1035.292,437,2534,16972,0
7176166,25.254,138.836,1026.874,414,2276,16834,0
7176204,16.104,113.948,1032.974,264,1868,16934,0
7176241,25.254,85.461,1009.184,414,1401,16544,0
7176278,29.402,68.320,998.387,482,1120,16367,0
7176315,26.657,14.579,1004.426,437,239,16466,0
7176354,18.788,10.980,982.954,308,180,16114,0
7176390,22.509,-28.304,996.984,369,-464,16344,0
7176427,30.744,-55.022,996.557,504,-902,16337,0
7176465,44.103,-93.879,977.403,723,-1539,16023,0
7176503,28.914,-130.418,992.775,474,-2138,16275,0
7176539,33.062,-131.760,974.109,542,-2160,15969,0
7176575,46.848,-143.106,966.606,768,-2346,15846,0
7176613,53.314,-154.818,965.691,874,-2538,15831,0
7176651,39.040,-150.792,970.815,640,-2472,15915,0
7176688,58.316,-171.105,964.288,956,-2805,15808,0
7176724,65.270,-176.046,954.528,1070,-2886,15648,0
7176763,72.590,-171.166,969.900,1190,-2806,15900,0
7176801,78.568,-184.220,973.682,1288,-3020,15962,0
7176836,103.334,-177.022,968.985,1694,-2902,15885,0
7176873,107.482,-157.136,969.900,1762,-2576,15900,0
7176910,76.677,-209.535,984.357,1257,-3435,16137,0
7176947,82.228,-193.675,1025.044,1348,-3175,16804,0
7176984,73.932,-188.246,1021.750,1212,-3086,16750,0
7177022,31.232,-227.591,1038.586,512,-3731,17026,0
7177060,50.508,-174.704,1055.788,828,-2864,17308,0
7177096,41.358,-193.248,1075.430,678,-3168,17630,0
7177133,10.126,-198.677,1081.530,166,-3257,17730,0
7177172,13.298,-188.246,1107.211,218,-3086,18151,0
7177208,0.915,-168.848,1112.762,15,-2768,18242,0
7177245,17.934,-147.620,1113.738,294,-2420,18258,0
7177282,14.274,-135.420,1138.992,234,-2220,18672,0
7177318,15.189,-129.991,1163.270,249,-2131,19070,0
7177358,9.638,-89.792,1153.449,158,-1472,18909,0
7177394,8.723,-66.307,1143.140,143,-1087,18740,0
7177430,0.488,-28.365,1143.140,8,-465,18740,0
7177468,-3.172,-8.052,1142.225,-52,-132,18725,0
7177504,-21.594,43.432,1154.852,-354,712,18932,0
7177542,-11.956,65.575,1141.798,-196,1075,18718,0
7177579,-44.530,78.263,1150.643,-730,1283,18863,0
7177618,-22.082,128.466,1142.286,-362,2106,18726,0
7177655,-46.360,141.520,1143.201,-760,2320,18741,0
7177691,-45.018,146.461,1140.822,-738,2401,18702,0
7177727,-49.654,163.663,1178.642,-814,2683,19322,0
7177766,-46.421,165.005,1132.404,-761,2705,18564,0
7177804,-72.590,147.376,1143.628,-1190,2416,18748,0
7177840,-78.080,189.832,1133.380,-1280,3112,18580,0
7177876,-70.272,183.976,1109.529,-1152,3016,18189,0
7177914,-54.168,204.350,1100.684,-888,3350,18044,0
7177950,-37.698,198.433,1084.824,-618,3253,17784,0
7177988,-29.890,175.436,1097.390,-490,2876,17990,0
7178027,0.488,180.804,1071.709,8,2964,17569,0
7178063,-3.660,161.833,1037.122,-60,2653,17002,0
7178099,31.232,156.404,1010.038,512,2564,16558,0
7178137,5.978,143.777,1017.541,98,2357,16681,0
7178177,9.150,133.834,1002.596,150,2194,16436,0
7178215,22.509,130.662,979.233,369,2142,16053,0
7178252,16.104,71.065,981.612,264,1165,16092,0
7178286,-2.318,50.264,975.024,-38,824,15984,0
7178322,4.148,37.149,964.776,68,609,15816,0
7178364,8.296,-7.564,959.652,136,-124,15732,0
7178401,7.808,-58.621,991.372,128,-961,16252,0
7178435,26.230,-67.710,963.800,430,-1110,15800,0
7178471,26.596,-97.966,978.806,436,-1606,16046,0
7178512,37.210,-116.876,956.358,610,-1916,15678,0
7178550,41.358,-130.906,939.522,678,-2146,15402,0
7178583,43.188,-157.136,939.095,708,-2576,15395,0
7178620,45.933,-143.106,941.840,753,-2346,15440,0
7178661,70.760,-168.421,943.792,1160,-2761,15472,0
7178695,80.886,-160.735,947.025,1326,-2635,15525,0
7178731,75.396,-195.505,960.567,1236,-3205,15747,0
7178771,87.718,-164.334,935.801,1438,-2694,15341,0
7178808,93.269,-178.364,924.150,1529,-2924,15150,0
7178843,96.014,-179.218,963.373,1574,-2938,15793,0
7178880,119.438,-175.619,977.403,1958,-2879,16023,0
7178917,72.590,-207.217,1000.278,1190,-3397,16398,0
7178954,108.397,-200.019,992.836,1777,-3279,16276,0
7178991,68.869,-202.276,1025.471,1129,-3316,16811,0
7179029,42.700,-209.535,1043.710,700,-3435,17110,0
7179066,36.295,-190.991,1067.500,595,-3131,17500,0
7179103,33.550,-179.706,1067.073,550,-2946,17493,0
7179140,25.742,-207.705,1099.708,422,-3405,18028,0
7179177,28.975,-185.562,1094.584,475,-3042,17944,0
7179214,21.106,-191.418,1105.808,346,-3138,18128,0
7179252,14.274,-172.508,1125.938,234,-2828,18458,0
7179289,29.402,-133.163,1118.923,482,-2183,18343,0
7179326,20.679,-111.020,1155.340,339,-1820,18940,0
7179365,20.191,-85.278,1137.589,331,-1398,18649,0
7179402,-11.956,-56.364,1162.355,-196,-924,19055,0
7179438,10.553,-24.278,1166.076,173,-398,19116,0
7179475,-1.342,19.581,1135.698,-22,321,18618,0
7179513,-12.810,46.177,1153.876,-210,757,18916,0
7179553,-18.849,73.749,1164.185,-309,1209,19085,0
7179587,-39.955,91.378,1148.752,-655,1498,18832,0
7179623,-39.955,123.891,1150.216,-655,2031,18856,0
7179661,-49.654,132.065,1161.867,-814,2165,19047,0
7179698,-46.421,148.291,1151.558,-761,2431,18878,0
7179735,-63.867,155.550,1146.007,-1047,2550,18787,0
7179774,-56.486,163.663,1134.295,-926,2683,18595,0
7179810,-80.886,179.035,1136.613,-1326,2935,18633,0
7179847,-62.464,188.978,1131.062,-1024,3098,18542,0
7179884,-78.995,183.122,1122.156,-1295,3002,18396,0
7179921,-63.379,212.036,1097.390,-1039,3476,17990,0
7179959,-59.719,190.747,1099.220,-979,3127,18020,0
7179996,-17.019,214.232,1072.624,-279,3512,17584,0
7180033,-25.254,174.521,1066.097,-414,2861,17477,0
7180070,22.082,169.946,1024.556,362,2786,16796,0
7180109,31.720,137.433,1041.819,520,2253,17079,0
7180145,29.402,151.036,1030.168,482,2476,16888,0
7180181,45.933,134.749,1018.456,753,2209,16696,0
7180218,22.082,107.238,998.814,362,1758,16374,0
7180258,7.808,82.838,995.154,128,1358,16314,0
7180293,17.934,47.092,964.776,294,772,15816,0
7180330,15.616,24.949,982.527,256,409,16107,0
7180367,2.318,-7.564,985.333,38,-124,16153,0
7180404,47.275,-34.221,970.388,775,-561,15908,0
7180441,21.106,-74.420,976.915,346,-1220,16015,0
7180478,43.188,-96.990,970.876,708,-1590,15916,0
7180515,32.147,-126.392,972.706,527,-2072,15946,0
7180554,29.402,-155.306,956.358,482,-2546,15678,0
7180590,42.700,-141.337,944.219,700,-2317,15479,0
7180627,61.976,-156.221,955.443,1016,-2561,15663,0
7180664,55.144,-170.190,967.094,904,-2790,15854,0
7180703,73.078,-159.820,971.364,1198,-2620,15924,0
7180739,70.760,-182.390,970.388,1160,-2990,15908,0
7180776,85.461,-157.990,946.537,1401,-2590,15517,0
7180813,79.910,-171.593,961.970,1310,-2813,15770,0
7180851,81.801,-193.675,971.730,1341,-3175,15930,0
7180888,108.397,-171.044,1002.108,1777,-2804,16428,0
7180924,84.973,-214.476,1002.596,1393,-3516,16436,0
7180963,91.378,-187.392,996.984,1498,-3072,16344,0
7180999,43.188,-236.680,1032.974,708,-3880,16934,0
7181036,58.804,-193.248,1052.067,964,-3168,17247,0
7181073,40.382,-172.447,1060.058,662,-2827,17378,0
7181111,12.383,-221.247,1091.778,203,-3627,17898,0
7181149,30.744,-188.246,1088.545,504,-3086,17845,0
7181189,23.912,-188.246,1112.823,392,-3086,18243,0
7181223,16.531,-188.734,1110.017,271,-3094,18197,0
7181259,14.213,-159.820,1152.046,233,-2620,18886,0
7181297,31.232,-126.392,1155.767,512,-2072,18947,0
7181334,19.276,-119.560,1173.030,316,-1960,19230,0
7181371,7.808,-59.536,1137.589,128,-976,18649,0
7181408,-13.298,-73.078,1169.370,-218,-1198,19170,0
7181445,-5.002,-8.479,1139.419,-82,-139,18679,0
7181483,-0.915,12.749,1171.200,-15,209,19200,0
7181519,-6.893,69.235,1157.170,-113,1135,18970,0
7181559,-18.422,83.692,1166.076,-302,1372,19116,0
7181594,-13.298,83.265,1149.240,-218,1365,18840,0
7181631,-29.402,118.889,1147.837,-482,1949,18817,0
7181668,-44.530,125.721,1140.822,-730,2061,18702,0
7181705,-44.103,165.005,1160.464,-723,2705,19024,0
7181744,-56.486,159.149,1146.922,-926,2609,18802,0
7181780,-58.804,179.462,1136.186,-964,2942,18626,0
7181817,-58.316,165.432,1164.673,-956,2712,19093,0
7181854,-58.316,184.464,1125.450,-956,3024,18450,0
7181891,-65.697,182.634,1123.986,-1077,2994,18426,0
7181929,-43.188,202.520,1114.226,-708,3320,18266,0
7181968,-35.380,197.518,1088.545,-580,3238,17845,0
7182003,-27.999,181.719,1089.948,-459,2979,17868,0
7182040,20.252,168.177,1068.903,332,2757,17523,0
7182079,18.361,153.293,1042.246,301,2513,17086,0
7182116,36.295,152.805,1037.122,595,2505,17002,0
7182154,23.424,137.494,1047.004,384,2254,17164,0
7182188,36.295,136.091,998.387,595,2231,16367,0
7182229,15.616,109.434,1008.635,256,1794,16535,0
7182265,40.443,76.921,981.124,663,1261,16084,0
7182304,20.252,36.722,973.682,332,602,15962,0
7182337,20.679,14.579,983.442,339,239,16122,0
7182374,28.609,9.638,968.558,469,158,15878,0
7182411,32.696,-48.190,967.582,536,-790,15862,0
7182449,25.376,-72.163,959.164,416,-1183,15724,0
7182486,24.461,-115.107,974.536,401,-1887,15976,0
7182523,30.866,-129.076,958.249,506,-2116,15709,0
7182561,17.568,-162.077,952.637,288,-2657,15617,0
7182598,32.696,-153.049,959.164,536,-2509,15724,0
7182635,66.734,-147.620,948.428,1094,-2420,15548,0
7182671,58.011,-168.421,979.721,951,-2761,16061,0
7182710,67.649,-172.935,955.443,1109,-2835,15663,0
7182747,86.498,-173.850,940.925,1418,-2850,15425,0
7182783,84.668,-176.534,964.288,1388,-2894,15808,0
7182822,111.264,-172.935,980.148,1824,-2835,16068,0
7182859,74.054,-194.163,986.248,1214,-3183,16168,0
7182896,115.412,-167.933,984.845,1892,-2753,16145,0
7182932,72.712,-227.591,1013.820,1192,-3731,16620,0
7182969,78.202,-210.450,1001.681,1282,-3450,16421,0
7183010,49.288,-209.962,1017.053,808,-3442,16673,0
7183044,35.990,-207.705,1034.377,590,-3405,16957,0
7183081,4.270,-199.592,1078.236,70,-3272,17676,0
7183118,21.716,-194.590,1103.490,356,-3190,18090,0
7183155,18.483,-200.019,1112.335,303,-3279,18235,0
7183194,37.759,-186.477,1104.405,619,-3057,18105,0
7183230,19.825,-180.194,1113.250,325,-2954,18250,0
7183267,17.568,-134.505,1121.241,288,-2205,18381,0
7183303,9.333,-117.364,1115.141,153,-1924,18281,0
7183343,1.464,-110.105,1147.837,24,-1805,18817,0
7183378,-3.599,-79.849,1154.852,-59,-1309,18932,0
7183415,5.612,-38.735,1158.146,92,-635,18986,0
7183453,-14.579,5.063,1151.558,-239,83,18878,0
7183493,-13.664,33.062,1132.404,-224,542,18564,0
7183527,-0.793,65.636,1161.379,-13,1076,19039,0
7183564,-25.132,64.294,1165.588,-412,1054,19108,0
7183602,-25.132,108.092,1149.728,-412,1772,18848,0
7183638,-44.408,123.464,1162.294,-728,2024,19054,0
7183675,-47.641,140.178,1145.519,-781,2298,18779,0
7183713,-32.025,152.805,1137.589,-525,2505,18649,0
7183751,-67.893,160.064,1141.798,-1113,2624,18718,0
7183791,-52.704,160.064,1150.643,-864,2624,18863,0
7183825,-55.937,181.292,1120.326,-917,2972,18366,0
7183861,-77.104,166.408,1118.008,-1264,2728,18328,0
7183899,-62.830,180.804,1103.490,-1030,2964,18090,0
7183935,-38.491,196.176,1073.112,-631,3216,17592,0
7183975,-52.277,180.804,1100.684,-857,2964,18044,0
7184010,-1.708,182.634,1071.282,-28,2994,17562,0
7184047,3.782,153.293,1057.252,62,2513,17332,0
7184084,18.483,154.147,1056.764,303,2527,17324,0
7184122,30.439,139.690,1030.656,499,2290,16896,0
7184160,32.330,128.893,1004.426,530,2113,16466,0
7184196,27.206,127.978,995.154,446,2098,16314,0
7184233,7.442,98.576,1020.835,122,1616,16735,0
7184272,33.611,77.836,965.264,551,1276,15824,0
7184310,5.185,38.979,987.651,85,639,16191,0
7184345,39.589,30.378,941.901,649,498,15441,0
7184382,-1.708,-25.620,985.272,-28,-420,16152,0
7184418,24.461,-50.935,952.637,401,-835,15617,0
7184456,35.929,-79.422,929.762,589,-1302,15242,0
7184494,18.056,-115.534,987.224,296,-1894,16184,0
7184531,40.077,-135.908,950.258,657,-2228,15578,0
7184568,18.910,-131.821,977.830,310,-2161,16030,0
7184605,66.734,-150.365,944.707,1094,-2465,15487,0
7184642,42.822,-149.450,940.925,702,-2450,15425,0
7184679,66.246,-160.308,917.562,1086,-2628,15042,0
7184717,61.671,-173.850,956.358,1011,-2850,15678,0
7184753,70.882,-189.222,928.786,1162,-3102,15226,0
7184793,96.136,-173.362,961.543,1576,-2842,15763,0
7184829,93.818,-185.135,960.567,1538,-3035,15747,0
7184865,90.646,-190.991,984.845,1486,-3131,16145,0
7184902,119.072,-194.163,986.736,1952,-3183,16176,0
7184939,89.670,-213.134,977.342,1470,-3494,16022,0
7184978,69.479,-206.363,1020.835,1139,-3383,16735,0
7185015,57.523,-191.418,1013.332,943,-3138,16612,0
7185050,42.334,-206.790,1056.764,694,-3390,17324,0
7185088,28.121,-186.477,1067.012,461,-3057,17492,0
7185125,11.590,-218.136,1105.808,190,-3576,18128,0
7185162,30.439,-183.793,1087.630,499,-3013,17830,0
7185200,10.675,-203.191,1110.444,175,-3331,18204,0
7185237,19.398,-185.074,1118.862,318,-3034,18342,0
7185274,20.313,-129.564,1112.823,333,-2124,18243,0
7185311,16.653,-137.738,1139.907,273,-2258,18687,0
7185349,15.738,-108.336,1135.698,258,-1776,18618,0
7185386,8.357,-58.194,1142.652,137,-954,18732,0
7185422,-10.431,-64.477,1132.404,-171,-1057,18564,0
7185460,10.675,10.492,1142.286,175,172,18726,0
7185499,-21.472,34.892,1147.898,-352,572,18818,0
7185535,-20.984,59.292,1134.295,-344,972,18595,0
7185571,-27.450,75.518,1143.628,-450,1238,18748,0
7185609,-34.343,120.292,1154.852,-563,1972,18932,0
7185647,-51.789,116.205,1147.410,-849,1905,18810,0
7185683,-49.532,136.091,1125.450,-812,2231,18450,0
7185720,-42.578,174.033,1125.389,-698,2853,18449,0
7185759,-48.129,161.406,1144.543,-789,2646,18763,0
7185798,-60.512,171.776,1106.723,-992,2816,18143,0
7185832,-50.874,179.889,1124.047,-834,2949,18427,0
7185869,-89.914,188.978,1123.559,-1474,3098,18419,0
7185906,-56.852,190.320,1099.769,-932,3120,18029,0
7185944,-62.830,175.802,1120.753,-1030,2882,18373,0
7185983,-15.067,201.605,1069.391,-247,3305,17531,0
7186017,-20.557,165.432,1068.964,-337,2712,17524,0
7186055,19.886,164.578,1046.028,326,2698,17148,0
7186092,19.398,142.862,1034.804,318,2342,16964,0
7186129,58.011,138.348,1008.208,951,2268,16528,0
7186170,24.461,136.518,1029.680,401,2238,16880,0
7186207,28.609,135.176,1012.844,469,2216,16604,0
7186241,39.589,92.293,992.348,649,1513,16268,0
7186277,11.590,61.122,985.272,190,1002,16152,0
7186319,46.543,45.262,966.606,763,742,15846,0
7186356,15.738,6.405,981.612,258,105,16092,0
7186390,-9.516,-30.622,967.094,-156,-502,15854,0
7186426,38.674,-61.793,974.536,634,-1013,15976,0
7186466,33.184,-71.248,971.730,544,-1168,15930,0
7186501,32.330,-109.190,956.358,530,-1790,15678,0
7186537,36.844,-116.388,944.219,604,-1908,15479,0
7186575,34.099,-164.334,975.024,559,-2694,15984,0
7186614,52.521,-142.679,945.622,861,-2339,15502,0
7186650,54.351,-161.162,946.537,891,-2642,15517,0
7186687,59.841,-171.532,960.567,981,-2812,15747,0
7186724,75.884,-151.280,933.910,1244,-2480,15310,0
7186763,75.884,-202.276,963.312,1244,-3316,15792,0
7186798,103.456,-164.822,960.567,1696,-2702,15747,0
7186836,86.010,-174.277,955.870,1410,-2857,15670,0
7186872,93.818,-186.477,976.915,1538,-3057,16015,0
7186909,106.689,-187.819,1000.278,1749,-3079,16398,0
7186946,82.350,-212.646,1011.929,1350,-3486,16589,0
7186984,74.969,-202.276,1012.844,1229,-3316,16604,0
7187020,69.967,-199.592,1039.013,1147,-3272,17033,0
7187058,53.375,-184.220,1052.616,875,-3020,17256,0
7187096,22.204,-190.991,1075.918,364,-3131,17638,0
7187135,18.910,-205.936,1087.630,310,-3376,17830,0
7187170,32.696,-194.590,1097.878,536,-3190,17998,0
7187207,9.333,-190.076,1097.390,153,-3116,17990,0
7187246,3.782,-165.249,1123.559,62,-2709,18419,0
7187284,32.269,-135.908,1100.684,529,-2228,18044,0
7187318,16.653,-132.248,1125.938,273,-2168,18458,0
7187355,15.738,-88.450,1146.434,258,-1450,18794,0
7187393,15.738,-71.248,1161.867,258,-1168,19047,0
7187431,-5.368,-20.191,1158.146,-88,-331,18986,0
7187466,-8.601,9.150,1142.713,-141,150,18733,0
7187504,1.525,46.177,1155.340,25,757,18940,0
7187540,-13.176,72.834,1153.449,-216,1194,18909,0
7187580,-26.108,87.779,1153.022,-428,1439,18902,0
7187616,-52.704,121.634,1149.728,-864,1994,18848,0
7187653,-66.490,119.377,1149.728,-1090,1957,18848,0
7187691,-53.192,144.265,1152.046,-872,2365,18886,0
7187729,-59.170,156.892,1142.286,-970,2572,18726,0
7187765,-69.296,162.748,1157.658,-1136,2668,18978,0
7187801,-76.128,173.606,1137.101,-1248,2846,18641,0
7187840,-72.895,191.662,1108.126,-1195,3142,18166,0
7187879,-84.912,183.549,1130.574,-1392,3009,18534,0
7187913,-64.172,198.860,1124.474,-1052,3260,18434,0
7187955,-28.792,217.404,1093.242,-472,3564,17922,0
7187988,-32.452,191.174,1102.514,-532,3134,18074,0
7188024,-0.793,179.950,1082.872,-13,2950,17752,0
7188062,22.143,159.576,1066.158,363,2616,17478,0
7188101,32.757,133.834,1045.540,537,2194,17140,0
7188135,47.397,157.746,1011.014,777,2586,16574,0
7188173,39.162,126.575,1011.014,642,2075,16574,0
7188211,22.204,109.861,1022.238,364,1801,16758,0
7188247,40.565,89.975,992.775,665,1475,16275,0
7188285,24.522,51.179,996.496,402,839,16336,0
7188322,17.568,16.836,982.039,288,276,16099,0
7188359,18.056,2.806,968.985,296,46,15885,0
7188397,14.396,-15.677,971.303,236,-257,15923,0
7188434,27.206,-57.706,972.706,446,-946,15946,0
7188470,35.014,-90.707,977.342,574,-1487,16022,0
7188508,31.842,-118.706,963.373,522,-1946,15793,0
7188549,25.376,-137.677,975.512,416,-2257,15992,0
7188583,43.737,-137.677,943.792,717,-2257,15472,0
7188619,46.055,-156.221,954.040,755,-2561,15640,0
7188659,75.884,-148.962,955.931,1244,-2442,15671,0
7188698,77.287,-174.704,944.646,1267,-2864,15486,0
7188735,72.712,-161.162,936.289,1192,-2642,15349,0
7188768,67.649,-190.991,967.094,1109,-3131,15854,0
7188805,97.051,-155.794,958.188,1591,-2554,15708,0
7188846,94.733,-177.388,968.497,1553,-2908,15877,0
7188880,99.796,-184.220,993.263,1636,-3020,16283,0
7188917,101.199,-188.246,963.861,1659,-3086,15801,0
7188956,93.818,-198.189,1006.805,1538,-3249,16505,0
7188991,58.438,-206.363,1027.362,958,-3383,16842,0
7189028,49.715,-198.677,1031.998,815,-3257,16918,0
7189066,34.099,-206.363,1057.252,559,-3383,17332,0
7189106,40.504,-183.366,1046.028,664,-3006,17148,0
7189142,31.354,-202.276,1099.281,514,-3316,18021,0
7189177,18.056,-186.050,1096.475,296,-3050,17975,0
7189214,18.056,-175.619,1122.644,296,-2879,18404,0
7189251,7.442,-148.535,1132.404,122,-2435,18564,0
7189289,1.037,-134.078,1129.171,17,-2198,18511,0
7189326,32.269,-93.391,1128.256,529,-1531,18496,0
7189363,4.270,-95.648,1123.132,70,-1568,18412,0
7189404,23.546,-52.765,1128.256,386,-865,18496,0
7189441,0.610,-11.224,1135.698,10,-184,18618,0
7189475,-21.960,4.636,1150.643,-360,76,18863,0
7189511,-6.344,67.466,1135.698,-104,1106,18618,0
7189549,-25.132,62.464,1152.961,-412,1024,18901,0
7189586,-24.705,118.462,1137.528,-405,1942,18648,0
7189623,-42.639,111.264,1129.598,-699,1824,18518,0
7189660,-66.490,114.436,1163.758,-1090,1876,19078,0
7189697,-27.938,169.580,1101.599,-458,2780,18059,0
7189735,-59.597,146.949,1158.146,-977,2409,18986,0
7189772,-67.466,167.750,1149.728,-1106,2750,18848,0
7189809,-50.874,171.349,1133.380,-834,2809,18580,0
7189847,-90.829,177.205,1131.977,-1489,2905,18557,0
7189883,-71.553,195.688,1082.506,-1173,3208,17746,0
7189920,-79.361,188.490,1116.544,-1301,3090,18304,0
7189957,-49.959,207.034,1102.575,-819,3394,18075,0
7189995,-24.217,181.292,1078.236,-397,2972,17676,0
7190032,13.420,167.262,1064.267,220,2742,17447,0
7190069,10.248,148.291,1056.276,168,2431,17316,0
7190106,24.034,155.550,1008.696,394,2550,16536,0
7190145,18.910,133.834,1010.526,310,2194,16566,0
7190185,18.483,138.836,1001.620,303,2276,16420,0
7190218,28.182,110.349,996.069,462,1809,16329,0
7190255,18.910,78.690,1003.511,310,1290,16451,0
7190293,18.056,42.578,977.403,296,698,16023,0
7190330,34.526,28.121,982.527,566,461,16107,0
7190367,15.250,3.721,964.288,250,61,15808,0
7190404,33.184,-19.764,960.567,544,-324,15747,0
7190443,22.143,-53.192,974.109,363,-872,15969,0
7190478,45.140,-93.879,969.900,740,-1539,15900,0
7190515,44.652,-100.162,976.915,732,-1642,16015,0
7190552,21.228,-144.448,956.846,348,-2368,15686,0
7190590,67.222,-131.760,951.234,1102,-2160,15594,0
7190627,47.885,-153.476,966.606,785,-2516,15846,0
7190664,36.844,-172.447,945.134,604,-2827,15494,0
7190703,60.756,-160.308,947.025,996,-2628,15525,0
7190739,45.140,-180.194,960.079,740,-2954,15739,0
7190775,94.794,-162.077,926.956,1554,-2657,15196,0
7190813,89.243,-175.619,964.288,1463,-2879,15808,0
7190851,81.862,-176.534,1004.914,1342,-2894,16474,0
7190887,98.881,-160.308,984.845,1621,-2628,16145,0
7190924,91.500,-202.764,994.178,1500,-3324,16298,0
7190962,75.884,-215.391,1013.820,1244,-3531,16620,0
7190998,69.967,-182.878,1001.193,1147,-2998,16413,0
7191036,45.140,-197.762,1035.292,740,-3242,16972,0
7191073,26.352,-195.932,1084.763,432,-3212,17783,0
7191110,27.694,-186.050,1064.694,454,-3050,17454,0
7191149,-1.220,-206.790,1104.832,-20,-3390,18112,0
7191186,12.993,-191.418,1120.326,213,-3138,18366,0
7191221,20.740,-156.160,1096.963,340,-2560,17983,0
7191259,19.886,-153.476,1135.698,326,-2516,18618,0
7191296,13.420,-129.564,1124.962,220,-2124,18442,0
7191333,24.034,-102.419,1155.340,394,-1679,18940,0
7191370,-7.686,-92.537,1155.767,-126,-1517,18947,0
7191407,0.610,-48.678,1149.240,10,-798,18840,0
7191444,-2.196,-11.163,1167.479,-36,-183,19139,0
7191482,-8.174,32.208,1143.201,-134,528,18741,0
7191519,-16.409,63.806,1165.588,-269,1046,19108,0
7191558,-15.494,74.664,1142.713,-254,1224,18733,0
7191592,-25.620,93.208,1170.224,-420,1528,19184,0
7191631,-37.088,115.778,1152.046,-608,1898,18886,0
7191668,-45.872,122.549,1138.504,-752,2009,18664,0
7191704,-41.236,157.319,1133.807,-676,2579,18587,0
7191743,-60.512,139.202,1174.921,-992,2282,19261,0
7191780,-59.170,171.349,1140.822,-970,2809,18702,0
7191816,-88.572,173.606,1127.280,-1452,2846,18480,0
7191854,-77.531,179.950,1124.535,-1271,2950,18435,0
7191891,-89.121,191.662,1117.581,-1461,3142,18321,0
7191927,-59.719,214.232,1086.776,-979,3512,17816,0
7191967,-49.593,204.350,1103.612,-813,3350,18092,0
7192004,-32.147,180.804,1095.682,-527,2964,17962,0
7192039,6.893,185.806,1062.010,113,3046,17410,0
7192077,5.978,150.060,1048.041,98,2460,17181,0
7192114,31.720,139.690,1026.081,520,2290,16821,0
7192152,30.744,150.548,1039.623,504,2468,17043,0
7192192,25.742,115.778,1029.802,422,1898,16882,0
7192226,38.186,138.836,1008.330,626,2276,16530,0
7192262,7.808,64.721,987.773,128,1061,16193,0
7192300,19.276,48.434,993.385,316,794,16285,0
7192340,50.996,34.892,970.937,836,572,15917,0
7192374,31.232,-24.766,977.952,512,-406,16032,0
7192411,29.402,-30.134,973.316,482,-494,15956,0
7192451,33.977,-77.104,994.300,557,-1264,16300,0
7192486,40.870,-93.391,983.076,670,-1531,16116,0
7192522,27.999,-118.279,975.634,459,-1939,15994,0
7192562,43.188,-139.019,969.534,708,-2279,15894,0
7192599,37.210,-146.278,969.534,610,-2398,15894,0
7192634,67.100,-148.108,941.047,1100,-2428,15427,0
7192671,57.889,-170.190,960.628,949,-2790,15748,0
7192710,71.187,-180.560,977.037,1167,-2960,16017,0
7192746,70.272,-191.418,958.371,1152,-3138,15711,0
7192783,82.228,-165.188,962.092,1348,-2708,15772,0
7192820,86.864,-168.848,949.038,1424,-2768,15558,0
7192858,94.184,-196.420,989.176,1544,-3220,16216,0
7192894,89.121,-174.704,996.618,1461,-2864,16338,0
7192932,89.121,-205.448,1014.369,1461,-3368,16629,0
7192969,69.845,-195.505,1013.454,1145,-3205,16614,0
7193009,53.741,-212.219,1013.942,881,-3479,16622,0
7193044,30.317,-189.649,1039.623,497,-3109,17043,0
7193080,32.635,-196.847,1067.622,535,-3227,17502,0
7193117,28.060,-182.878,1086.776,460,-2998,17816,0
7193155,22.509,-190.076,1108.248,369,-3116,18168,0
7193194,30.317,-173.789,1103.124,497,-2849,18084,0
7193229,5.978,-181.048,1113.372,98,-2968,18252,0
7193266,21.594,-153.476,1144.726,354,-2516,18766,0
7193303,-4.636,-125.904,1146.068,-76,-2064,18788,0
7193343,20.191,-92.964,1150.765,331,-1524,18865,0
7193378,0.915,-95.648,1144.726,15,-1568,18766,0
7193414,-4.148,-37.393,1151.253,-68,-613,18873,0
7193453,0.427,14.579,1150.765,7,239,18865,0
7193492,-27.572,13.664,1161.562,-452,224,19042,0
7193526,0.488,71.004,1153.144,8,1164,18904,0
7193563,-45.018,90.890,1175.531,-738,1490,19271,0
7193602,-30.805,93.635,1161.074,-505,1535,19034,0
7193640,-35.380,132.004,1163.392,-580,2164,19072,0
7193675,-52.826,123.891,1152.168,-866,2031,18888,0
7193712,-46.421,168.177,1146.556,-761,2757,18796,0
7193753,-58.316,138.348,1140.944,-956,2268,18704,0
7193790,-61.122,175.863,1142.835,-1002,2883,18735,0
7193824,-85.400,157.319,1138.138,-1400,2579,18658,0
7193861,-60.634,198.921,1111.542,-994,3261,18222,0
7193898,-95.526,197.518,1125.999,-1566,3238,18459,0
7193935,-38.125,207.522,1098.915,-625,3402,18015,0
7193974,-55.632,193.492,1109.224,-912,3172,18184,0
7194009,-16.958,174.033,1086.349,-278,2853,17809,0
7194046,28.914,194.834,1054.568,474,3194,17288,0
7194083,-9.150,146.034,1064.816,-150,2394,17456,0
7194121,50.081,172.264,1013.942,821,2824,16622,0
7194158,6.893,140.605,1023.214,113,2305,16774,0
7194196,36.295,142.435,1019.066,595,2335,16706,0
7194233,34.465,104.920,1015.772,565,1720,16652,0
7194269,23.424,66.490,992.897,384,1090,16277,0
7194308,31.232,48.007,981.734,512,787,16094,0
7194344,29.890,15.921,977.464,490,261,16024,0
7194381,12.444,-15.250,987.346,204,-250,16186,0
7194419,26.230,-29.280,981.734,430,-480,16094,0
7194457,24.827,-87.535,982.649,407,-1435,16109,0
7194493,32.208,-104.249,949.526,528,-1709,15566,0
7194530,40.931,-141.764,959.286,671,-2324,15726,0
7194566,34.465,-137.250,964.898,565,-2250,15818,0
7194605,46.360,-142.679,961.116,760,-2339,15756,0
7194642,62.464,-165.676,956.480,1024,-2716,15680,0
7194678,56.486,-167.506,967.216,926,-2746,15856,0
7194717,74.420,-168.848,949.038,1220,-2768,15558,0
7194755,68.930,-171.166,965.874,1130,-2806,15834,0
7194790,67.100,-173.362,942.938,1100,-2842,15458,0
7194827,94.184,-182.878,976.976,1544,-2998,16016,0
7194865,90.036,-171.532,1000.827,1476,-2812,16407,0
7194902,104.737,-178.364,959.286,1717,-2924,15726,0
7194939,91.439,-195.078,999.424,1499,-3198,16384,0
7194976,67.527,-199.592,1032.120,1107,-3272,16920,0
7195013,74.420,-194.590,1016.748,1220,-3190,16668,0
7195052,30.378,-212.646,1062.010,498,-3486,17410,0
7195087,41.358,-177.388,1057.801,678,-2908,17341,0
7195125,25.742,-214.476,1086.776,422,-3516,17816,0
7195162,28.914,-180.133,1094.706,474,-2953,17946,0
7195203,17.446,-204.106,1101.721,286,-3346,18061,0
7195240,24.827,-176.046,1134.905,407,-2886,18605,0
7195273,17.446,-153.476,1120.875,286,-2516,18375,0
7195311,11.956,-117.364,1156.804,196,-1924,18964,0
7195351,22.448,-115.107,1159.610,368,-1887,19010,0
7195389,14.701,-57.706,1151.192,241,-946,18872,0
7195422,8.723,-40.565,1169.919,143,-665,19179,0
7195459,-5.063,-4.880,1148.386,-83,-80,18826,0
7195500,8.723,40.321,1135.820,143,661,18620,0
7195534,-7.320,62.037,1165.710,-120,1017,19110,0
7195570,-16.958,88.206,1153.571,-278,1446,18911,0
7195610,-25.742,104.005,1150.277,-422,1705,18857,0
7195647,-47.336,126.636,1139.053,-776,2076,18673,0
7195682,-49.654,132.004,1155.889,-814,2164,18949,0
7195719,-66.124,155.977,1150.765,-1084,2557,18865,0
7195756,-52.338,168.604,1139.114,-858,2764,18674,0
7195794,-67.527,173.179,1141.920,-1107,2839,18720,0
7195831,-72.590,167.750,1116.666,-1190,2750,18306,0
7195868,-65.209,187.575,1097.024,-1069,3075,17984,0
7195905,-56.486,193.004,1105.930,-926,3164,18130,0
7195943,-53.314,197.091,1100.806,-874,3231,18046,0
7195979,-28.914,185.318,1085.861,-474,3038,17801,0
7196020,-3.233,175.375,1081.652,-53,2875,17732,0
7196054,15.128,152.378,1062.986,248,2498,17426,0
7196091,42.700,166.347,1041.941,700,2727,17081,0
7196128,24.339,158.722,1041.026,399,2602,17066,0
7196165,14.213,116.632,1041.941,233,1912,17081,0
7196204,41.358,151.463,995.276,678,2483,16316,0
7196240,2.745,76.006,1018.151,45,1246,16691,0
7196277,24.827,69.235,988.688,407,1135,16208,0
7196313,21.594,31.293,955.504,354,513,15664,0
7196351,16.043,2.379,981.185,263,39,16085,0
7196388,30.805,-32.452,966.728,505,-532,15848,0
7196426,12.383,-64.965,975.146,203,-1065,15986,0
7196465,46.421,-82.106,963.007,761,-1346,15787,0
7196501,36.722,-94.733,965.813,602,-1553,15833,0
7196537,17.446,-153.964,963.007,286,-2524,15787,0
7196574,53.802,-134.078,940.132,882,-2198,15412,0
7196611,30.317,-155.794,968.619,497,-2554,15879,0
7196649,50.081,-146.278,962.580,821,-2398,15780,0
7196686,54.656,-187.819,966.728,896,-3079,15848,0
7196723,64.294,-161.162,963.007,1054,-2642,15787,0
7196764,74.908,-175.619,951.356,1228,-2879,15596,0
7196799,74.908,-174.704,955.992,1228,-2864,15672,0
7196835,74.420,-178.364,991.006,1220,-2924,16246,0
7196875,113.460,-163.907,976.549,1860,-2687,16009,0
7196909,82.716,-207.705,1015.772,1356,-3405,16652,0
7196946,100.650,-201.422,990.579,1650,-3302,16239,0
7196983,69.357,-199.592,1032.608,1137,-3272,16928,0
7197022,55.571,-194.590,1034.438,911,-3190,16958,0
7197057,37.698,-191.418,1058.777,618,-3138,17357,0
7197095,22.936,-204.533,1075.552,376,-3353,17632,0
7197133,24.339,-193.675,1087.264,399,-3175,17824,0
7197169,22.082,-205.875,1103.124,362,-3375,18084,0
7197205,36.722,-164.761,1108.248,602,-2701,18168,0
7197243,21.167,-163.480,1119.960,347,-2680,18360,0
7197281,14.274,-141.764,1138.138,234,-2324,18658,0
7197318,39.040,-107.360,1136.735,640,-1760,18635,0
7197355,10.553,-87.962,1129.293,173,-1442,18513,0
7197392,4.575,-73.993,1151.192,75,-1213,18872,0
7197429,24.827,-1.220,1143.750,407,-20,18750,0
7197466,-16.531,10.980,1147.471,-271,180,18811,0
7197505,-20.191,32.696,1155.401,-331,536,18941,0
7197543,-9.150,82.838,1156.804,-150,1358,18964,0
7197578,-27.999,88.633,1159.610,-459,1453,19010,0
7197615,-35.380,115.290,1151.253,-580,1890,18873,0
7197655,-49.166,115.778,1162.904,-806,1898,19064,0
7197694,-40.016,150.060,1145.641,-656,2460,18781,0
7197727,-70.272,148.291,1183.461,-1152,2431,19401,0
7197764,-65.270,166.347,1141.920,-1070,2727,18720,0
7197805,-59.719,178.974,1139.114,-979,2934,18674,0
7197842,-82.228,161.406,1140.517,-1348,2646,18697,0
7197876,-82.716,187.636,1130.696,-1356,3076,18536,0
7197913,-63.379,189.405,1105.015,-1039,3105,18115,0
7197954,-53.253,206.119,1119.472,-873,3379,18352,0
7197987,-35.380,193.004,1097.024,-580,3164,17984,0
7198024,-5.490,179.035,1092.388,-90,2935,17908,0
7198063,-0.427,169.092,1034.926,-7,2772,16966,0
7198098,24.766,155.977,1046.638,406,2557,17158,0
7198140,37.637,142.862,1037.732,617,2342,17012,0
7198174,19.276,135.664,1030.290,316,2224,16890,0
7198210,33.550,118.950,1033.950,550,1950,16950,0
7198251,25.254,94.489,998.997,414,1549,16377,0
7198288,17.934,40.321,994.788,294,661,16308,0
7198322,18.849,48.922,972.401,309,802,15941,0
7198358,11.956,-9.821,999.424,196,-161,16384,0
7198396,33.550,-26.962,965.813,550,-442,15833,0
7198433,34.465,-64.904,977.952,565,-1064,16032,0
7198469,35.380,-91.134,978.440,580,-1494,16040,0
7198507,47.336,-126.392,963.495,776,-2072,15795,0
7198544,61.122,-115.534,955.565,1002,-1894,15665,0
7198582,39.040,-154.330,973.316,640,-2530,15956,0
7198619,71.614,-162.016,949.526,1174,-2656,15566,0
7198656,52.826,-176.046,977.952,866,-2886,16032,0
7198694,58.804,-170.678,971.852,964,-2798,15932,0
7198731,73.078,-171.166,956.968,1198,-2806,15688,0
7198767,77.165,-165.676,970.510,1265,-2716,15910,0
7198805,89.121,-181.536,984.479,1461,-2976,16139,0
7198842,103.334,-159.393,963.922,1694,-2613,15802,0
7198879,86.864,-197.335,1012.051,1424,-3235,16591,0
7198917,93.696,-180.560,1002.718,1536,-2960,16438,0
7198956,83.143,-204.106,1003.206,1363,-3346,16446,0
7198991,59.719,-200.019,1028.826,979,-3279,16866,0
7199028,53.314,-182.878,1040.538,874,-2998,17058,0
7199065,32.147,-189.161,1056.398,527,-3101,17318,0
7199102,16.958,-199.104,1098.000,278,-3264,18000,0
7199138,39.040,-179.706,1101.233,640,-2946,18053,0
7199176,20.679,-188.734,1113.860,339,-3094,18260,0
7199213,34.892,-183.305,1108.736,572,-3005,18176,0
7199254,-5.063,-171.532,1146.068,-83,-2812,18788,0
7199289,33.062,-132.736,1142.835,542,-2176,18735,0
7199325,17.934,-104.676,1156.377,294,-1716,18957,0
7199362,25.254,-81.618,1147.044,414,-1338,18804,0
7199399,-4.148,-60.451,1161.928,-68,-991,19048,0
7199440,-8.723,-22.448,1158.268,-143,-368,18988,0
7199475,-7.381,16.348,1153.571,-121,268,18911,0
7199511,-10.126,52.521,1166.198,-166,861,19118,0
7199552,0.915,80.032,1153.144,15,1312,18904,0
7199589,-42.700,80.032,1184.376,-700,1312,19416,0
7199623,-7.381,120.292,1166.198,-121,1972,19118,0
7199659,-57.401,114.863,1157.292,-941,1883,18972,0
7199701,-42.273,151.890,1153.571,-693,2490,18911,0
7199734,-68.930,160.491,1175.958,-1130,2631,19278,0
7199771,-45.018,157.746,1132.526,-738,2586,18566,0
7199810,-61.549,183.122,1152.168,-1009,3002,18888,0
7199846,-69.357,176.778,1169.492,-1137,2898,19172,0
7199883,-73.505,177.205,1142.347,-1205,2905,18727,0
7199920,-66.612,201.605,1118.069,-1092,3305,18329,0
7199957,-27.572,194.834,1095.194,-452,3194,17954,0
7199995,-33.550,184.464,1104.527,-550,3024,18107,0
7200032,5.978,172.691,1075.064,98,2831,17624,0
7200068,6.893,154.574,1060.607,113,2534,17387,0
7200106,15.189,144.692,1033.584,249,2372,16944,0
7200142,50.996,147.864,1006.012,836,2424,16492,0
7200180,40.443,123.891,1030.290,663,2031,16890,0
7200217,17.934,102.236,1006.500,294,1676,16500,0
7200254,33.062,73.322,1012.539,542,1202,16599,0
7200291,19.276,43.493,999.912,316,713,16392,0
7200329,11.041,23.607,983.076,181,387,16116,0
7200366,29.890,-5.734,969.107,490,-94,15887,0
7200403,3.233,-40.077,986.858,53,-657,16178,0
7200442,35.380,-56.791,949.953,580,-931,15573,0
7200477,25.254,-103.761,985.882,414,-1701,16162,0
7200515,16.958,-140.849,983.076,278,-2309,16116,0
7200551,38.125,-132.736,953.186,625,-2176,15626,0
7200589,30.744,-158.478,975.634,504,-2598,15994,0
7200626,68.442,-144.936,952.759,1122,-2376,15619,0
7200663,46.848,-188.734,941.962,768,-3094,15442,0
7200700,80.398,-165.676,957.395,1318,-2716,15695,0
7200739,89.548,-168.421,948.062,1468,-2761,15542,0
7200775,77.653,-181.048,974.231,1273,-2968,15971,0
7200812,97.356,-161.162,963.922,1596,-2642,15802,0
7200849,102.480,-186.965,975.634,1680,-3065,15994,0
7200886,105.225,-183.793,986.370,1725,-3013,16170,0
7200923,85.461,-200.019,1007.842,1401,-3279,16522,0
7200962,91.378,-195.078,993.385,1498,-3198,16285,0
7200998,64.294,-182.390,1033.523,1054,-2990,16943,0
7201035,45.018,-204.960,1035.414,738,-3360,16974,0
7201072,21.594,-193.248,1079.822,354,-3168,17702,0
7201109,36.295,-200.446,1108.248,595,-3286,18168,0
7201147,39.955,-191.418,1082.567,655,-3138,17747,0
7201184,6.466,-205.936,1115.690,106,-3376,18290,0
7201224,46.848,-169.336,1104.588,768,-2776,18108,0
7201260,15.189,-164.334,1145.153,249,-2694,18773,0
7201298,23.424,-116.022,1113.860,384,-1902,18260,0
7201335,17.934,-123.708,1151.253,294,-2028,18873,0
7201369,11.468,-69.906,1121.363,188,-1146,18383,0
7201411,22.936,-48.190,1167.113,376,-790,19133,0
7201444,-12.871,9.150,1153.083,-211,150,18903,0
7201481,-5.978,23.607,1153.083,-98,387,18903,0
7201518,-5.490,58.377,1166.198,-90,957,19118,0
7201555,-12.871,61.976,1158.268,-211,1016,18988,0
7201593,-15.189,95.892,1165.222,-249,1572,19102,0
7201630,-43.676,102.236,1142.835,-716,1676,18735,0
7201667,-48.678,135.664,1160.098,-798,2224,19018,0
7201704,-39.528,152.805,1159.122,-648,2505,19002,0
7201741,-66.612,162.748,1180.655,-1092,2668,19355,0
7201779,-67.100,165.920,1172.725,-1100,2720,19225,0
7201816,-68.930,182.207,1124.596,-1130,2987,18436,0
7201854,-89.182,164.090,1140.029,-1462,2690,18689,0
7201890,-71.248,179.950,1142.347,-1168,2950,18727,0
7201927,-58.804,203.862,1106.906,-964,3342,18146,0
7201964,-48.190,185.318,1106.418,-790,3038,18138,0
7202002,-10.614,198.433,1075.552,-174,3253,17632,0
7202038,-2.318,158.722,1071.831,-38,2602,17571,0
7202076,17.934,158.722,1056.886,294,2602,17326,0
7202113,23.912,141.520,1031.632,392,2320,16912,0
7202155,44.530,146.034,1022.787,730,2394,16767,0
7202189,27.572,130.235,1022.360,452,2135,16760,0
7202224,55.632,112.118,1004.121,912,1838,16461,0
7202264,-3.172,65.636,1015.772,-52,1076,16652,0
7202299,39.528,55.266,992.470,648,906,16270,0
7202340,18.422,13.664,989.664,302,224,16224,0
7202374,14.274,-14.823,977.037,234,-243,16017,0
7202411,26.169,-35.624,955.992,429,-584,15672,0
7202447,30.317,-74.908,959.286,497,-1228,15726,0
7202485,35.868,-125.904,977.464,588,-2064,16024,0
7202522,32.635,-122.305,959.286,535,-2005,15726,0
7202559,15.128,-148.962,969.107,248,-2442,15887,0
7202600,64.294,-133.590,940.132,1054,-2190,15412,0
7202633,49.166,-175.192,968.131,806,-2872,15871,0
7202670,78.568,-152.134,951.356,1288,-2494,15596,0
7202709,74.908,-174.704,960.201,1228,-2864,15741,0
7202745,70.760,-187.819,974.170,1160,-3079,15970,0
7202783,94.611,-158.905,968.131,1551,-2605,15871,0
7202819,89.121,-177.022,980.758,1461,-2902,16078,0
7202860,96.990,-179.706,996.191,1590,-2946,16331,0
7202894,111.142,-200.019,981.734,1822,-3279,16094,0
7202931,83.570,-194.163,1001.315,1370,-3183,16415,0
7202968,81.740,-205.021,999.424,1340,-3361,16384,0
7203007,53.314,-208.620,1025.166,874,-3420,16806,0
7203042,56.486,-184.708,1041.514,926,-3028,17074,0
7203079,14.274,-205.448,1074.637,234,-3368,17617,0
7203117,25.254,-200.019,1079.822,414,-3279,17702,0
7203154,26.657,-177.449,1089.582,437,-2909,17862,0
7203193,25.742,-205.021,1105.930,422,-3361,18130,0
7203229,-3.660,-193.736,1136.735,-60,-3176,18635,0
7203265,40.443,-131.333,1125.084,663,-2153,18444,0
7203302,9.638,-140.422,1160.586,158,-2302,19026,0
7203340,15.616,-108.336,1141.432,256,-1776,18712,0
7203377,25.254,-89.304,1159.183,414,-1464,19003,0
7203414,10.980,-39.650,1154.486,180,-650,18926,0
7203452,1.830,8.662,1159.610,30,142,19010,0
7203492,-16.104,15.494,1166.686,-264,254,19126,0
7203526,2.745,84.119,1137.711,45,1379,18651,0
7203563,-22.021,78.690,1165.710,-361,1290,19110,0
7203604,-34.892,99.552,1158.207,-572,1632,18987,0
7203637,-22.936,118.462,1134.417,-376,1942,18597,0
7203675,-70.760,120.719,1181.570,-1160,1979,19370,0
7203715,-37.210,160.491,1154.486,-610,2631,18926,0
7203750,-49.166,167.262,1143.262,-806,2742,18742,0
7203787,-73.078,169.946,1156.865,-1198,2786,18965,0
7203823,-65.697,185.318,1140.029,-1077,3038,18689,0
7203862,-69.357,192.089,1110.566,-1137,3149,18206,0
7203898,-67.527,188.490,1118.069,-1107,3090,18329,0
7203934,-57.462,193.492,1100.806,-942,3172,18046,0
7203971,-22.997,207.949,1089.582,-377,3409,17862,0
7204010,-29.890,179.462,1088.179,-490,2942,17839,0
7204047,15.128,159.149,1025.593,248,2609,16813,0
7204083,17.934,158.234,1053.592,294,2594,17272,0
7204120,27.572,134.322,1038.220,452,2202,17020,0
7204160,31.232,143.350,1025.593,512,2350,16813,0
7204195,16.531,119.804,1010.160,271,1964,16560,0
7204233,36.783,100.406,1020.469,603,1646,16729,0
7204269,35.380,85.034,979.843,580,1394,16063,0
7204308,2.745,13.237,1006.927,45,217,16507,0
7204344,15.616,14.152,979.355,256,232,16055,0
7204380,24.339,-4.880,962.092,399,-80,15772,0
7204418,36.722,-45.506,963.983,602,-746,15803,0
7204457,22.082,-87.108,955.992,362,-1428,15672,0
7204492,47.763,-120.048,969.534,783,-1968,15894,0
7204529,39.040,-131.394,960.689,640,-2154,15749,0
7204567,49.593,-146.766,977.525,813,-2406,16025,0
7204603,55.998,-150.304,984.967,918,-2464,16147,0
7204644,55.632,-161.589,957.395,912,-2649,15695,0
7204679,51.911,-175.619,963.495,851,-2879,15795,0
7204715,75.823,-157.136,960.201,1243,-2576,15741,0
7204755,50.996,-172.020,956.968,836,-2820,15688,0
7204789,95.526,-173.789,957.395,1566,-2849,15695,0
7204827,91.866,-162.504,974.719,1506,-2664,15979,0
7204864,99.247,-183.793,1001.803,1627,-3013,16423,0
7204901,114.375,-192.821,1003.206,1875,-3161,16446,0
7204938,82.228,-197.335,1016.687,1348,-3235,16667,0
7204978,76.677,-198.677,1010.648,1257,-3257,16568,0
7205012,46.421,-194.590,1034.926,761,-3190,16966,0
7205050,45.933,-185.562,1041.941,753,-3042,17081,0
7205087,19.764,-194.590,1081.652,324,-3190,17732,0
7205124,40.016,-172.020,1091.900,656,-2820,17900,0
7205161,11.041,-192.821,1112.884,181,-3161,18244,0
7205198,37.210,-184.708,1122.278,610,-3028,18398,0
7205236,-1.830,-170.678,1119.960,-30,-2798,18360,0
7205276,40.443,-144.936,1128.805,663,-2376,18505,0
7205312,12.444,-127.734,1151.680,204,-2094,18880,0
7205350,28.487,-91.134,1157.292,467,-1494,18972,0
7205384,6.893,-90.219,1154.486,113,-1479,18926,0
7205423,-4.148,-48.190,1165.222,-68,-790,19102,0
7205462,13.298,5.490,1164.795,218,90,19095,0
7205496,-10.553,25.864,1173.152,-173,424,19232,0
7205533,-2.318,67.466,1160.098,-38,1106,19018,0
7205572,-14.701,99.064,1173.640,-241,1624,19240,0
7205608,-16.958,111.752,1163.392,-278,1832,19072,0
7205645,-57.889,114.436,1174.616,-949,1876,19256,0
7205682,-27.572,161.833,1139.541,-452,2653,18681,0
7205718,-66.612,136.518,1157.292,-1092,2238,18972,0
7205757,-73.017,174.460,1153.510,-1197,2860,18910,0
7205794,-62.464,179.462,1119.960,-1024,2942,18360,0
7205831,-76.250,178.547,1123.254,-1250,2927,18414,0
7205867,-61.976,169.519,1133.990,-1016,2779,18590,0
7205905,-88.206,180.804,1141.432,-1446,2964,18712,0
7205942,-45.933,212.890,1106.418,-753,3490,18138,0
7205979,-24.827,193.492,1069.025,-407,3172,17525,0
7206020,-18.849,179.035,1101.294,-309,2935,18054,0
7206053,30.317,164.090,1071.404,497,2690,17564,0
7206090,37.698,162.260,1039.135,618,2660,17035,0
7206128,11.956,142.435,1035.414,196,2335,16974,0
7206165,38.552,131.577,1014.430,632,2157,16630,0
7206202,19.276,117.608,1012.966,316,1928,16606,0
7206239,34.465,89.121,985.455,565,1461,16155,0
7206277,13.298,43.005,1000.827,218,705,16407,0
7206314,23.424,24.949,967.216,384,409,15856,0
7206352,19.764,0.976,990.091,324,16,16231,0
7206388,32.635,-13.420,975.146,535,-220,15986,0
7206425,11.468,-57.706,974.719,188,-946,15979,0
7206462,38.125,-82.594,986.858,625,-1354,16178,0
7206499,43.615,-132.248,963.922,715,-2168,15802,0
7206540,44.103,-106.994,954.650,723,-1754,15650,0
7206574,25.254,-166.164,991.982,414,-2724,16262,0
7206611,48.251,-138.165,967.216,791,-2265,15856,0
7206652,45.506,-163.846,950.868,746,-2686,15588,0
7206689,58.804,-167.506,959.774,964,-2746,15734,0
7206723,60.207,-155.306,957.395,987,-2546,15695,0
7206760,76.250,-175.619,963.007,1250,-2879,15787,0
7206800,81.740,-164.334,977.037,1340,-2694,16017,0
7206839,86.803,-168.360,973.316,1423,-2760,15956,0
7206871,110.715,-178.364,986.370,1815,-2924,16170,0
7206908,77.165,-188.307,1011.624,1265,-3087,16584,0
7206945,91.439,-202.764,993.324,1499,-3324,16284,0
7206983,75.335,-200.507,1002.718,1235,-3287,16438,0
7207019,50.081,-205.875,1033.523,821,-3375,16943,0
7207057,41.785,-206.790,1046.150,685,-3390,17150,0
7207094,33.977,-182.390,1074.210,557,-2990,17610,0
7207132,46.360,-194.163,1092.388,760,-3183,17908,0
7207168,30.317,-194.163,1107.333,497,-3183,18153,0
7207206,19.764,-188.307,1114.348,324,-3087,18268,0
7207243,36.722,-168.848,1136.796,602,-2768,18636,0
7207280,41.785,-135.908,1128.805,685,-2228,18505,0
7207317,-5.063,-138.592,1164.795,-83,-2272,19095,0
7207354,21.106,-93.452,1126.487,346,-1532,18467,0
7207391,16.958,-73.078,1155.889,278,-1198,18949,0
7207429,-12.444,-35.990,1164.734,-204,-590,19094,0
7207466,20.679,24.949,1139.541,339,409,18681,0
7207503,-18.361,39.894,1179.252,-301,654,19332,0
7207540,-29.890,64.660,1176.446,-490,1060,19286,0
7207576,-1.342,81.435,1146.556,-22,1335,18796,0
7207615,-55.144,105.408,1169.492,-904,1728,19172,0
7207652,-27.572,136.091,1144.726,-452,2231,18766,0
7207689,-52.338,146.461,1163.392,-858,2401,19072,0
7207728,-52.399,175.863,1150.277,-859,2883,18857,0
7207765,-67.100,156.404,1150.277,-1100,2564,18857,0
7207801,-55.571,197.091,1119.472,-911,3231,18352,0
7207838,-80.398,163.236,1156.804,-1318,2676,18964,0
7207878,-67.954,190.320,1118.984,-1114,3120,18344,0
7207912,-75.762,185.806,1135.820,-1242,3046,18620,0
7207954,-65.697,197.091,1116.178,-1077,3231,18298,0
7207987,-39.528,192.150,1103.124,-648,3150,18084,0
7208023,1.342,188.063,1084.458,22,3083,17778,0
7208061,2.745,167.262,1057.862,45,2742,17342,0
7208099,19.337,159.576,1040.538,317,2616,17058,0
7208136,23.424,153.293,1023.275,384,2513,16775,0
7208172,28.487,126.148,1008.818,467,2068,16538,0
7208211,29.890,112.179,1013.454,490,1839,16614,0
7208247,21.106,106.262,1005.524,346,1742,16484,0
7208287,24.339,68.747,988.261,399,1127,16201,0
7208321,12.871,24.522,971.913,211,402,15933,0
7208358,16.531,-3.538,985.394,271,-58,16154,0
7208399,38.552,-10.736,952.210,632,-176,15610,0
7208437,17.446,-71.248,978.440,286,-1168,16040,0
7208469,17.446,-83.448,964.410,286,-1368,15810,0
7208507,17.934,-122.305,1002.718,294,-2005,16438,0
7208547,34.892,-114.680,972.828,572,-1880,15948,0
7208584,21.106,-170.190,958.310,346,-2790,15710,0
7208618,61.610,-142.252,956.480,1010,-2332,15680,0
7208656,58.377,-170.678,966.240,957,-2798,15840,0
7208695,62.464,-186.904,949.038,1024,-3064,15558,0
7208730,70.272,-175.680,941.962,1152,-2880,15442,0
7208767,117.120,-167.079,955.504,1920,-2739,15664,0
7208805,83.570,-177.022,969.534,1370,-2902,15894,0
7208841,105.164,-170.678,987.346,1724,-2798,16186,0
7208878,102.480,-185.562,990.579,1680,-3042,16239,0
7208916,96.502,-192.821,1009.733,1582,-3161,16553,0
7208956,97.844,-186.416,998.509,1604,-3056,16369,0
7208990,59.719,-218.136,1026.508,979,-3576,16828,0
7209027,63.379,-182.878,1045.174,1039,-2998,17134,0
7209064,18.361,-191.906,1070.428,301,-3146,17548,0
7209101,48.678,-182.390,1075.552,798,-2990,17632,0
7209141,13.298,-195.078,1095.194,218,-3198,17954,0
7209176,36.722,-190.076,1109.651,602,-3116,18191,0
7209213,18.361,-191.418,1137.711,301,-3138,18651,0
7209251,32.574,-160.247,1130.696,534,-2627,18536,0
7209287,9.150,-138.104,1136.735,150,-2264,18635,0
7209324,10.553,-121.390,1150.765,173,-1990,18865,0
7209362,34.953,-75.274,1140.029,573,-1234,18689,0
7209400,-8.296,-75.762,1159.183,-136,-1242,19003,0
7209437,-1.830,-10.309,1154.486,-30,-169,18926,0
7209472,-17.934,22.692,1144.238,-294,372,18758,0
7209512,-6.466,63.318,1150.765,-106,1038,18865,0
7209550,-21.594,58.438,1167.601,-354,958,19141,0
7209589,-31.232,109.434,1147.532,-512,1794,18812,0
7209622,-22.936,108.092,1162.904,-376,1772,19064,0
7209659,-22.509,129.320,1154.486,-369,2120,18926,0
7209700,-58.316,140.178,1136.308,-956,2298,18628,0
7209734,-61.549,158.234,1136.308,-1009,2594,18628,0
7209770,-90.524,155.550,1147.959,-1484,2550,18819,0
7209810,-58.804,193.492,1140.517,-964,3172,18697,0
7209847,-67.527,180.804,1125.511,-1107,2964,18451,0
7209882,-70.272,201.178,1122.278,-1152,3298,18398,0
7209920,-57.889,201.605,1127.402,-949,3305,18482,0
7209957,-62.464,195.749,1122.766,-1024,3209,18406,0
7209994,-26.657,198.433,1090.497,-437,3253,17877,0
7210031,-10.126,164.090,1082.567,-166,2690,17747,0
7210068,-0.488,151.463,1042.368,-8,2483,17088,0
7210105,41.785,165.005,1036.817,685,2705,16997,0
7210143,12.383,123.891,1046.638,203,2031,17158,0
7210180,50.020,143.777,1018.578,820,2357,16698,0
7210217,26.596,116.266,1019.066,436,1906,16706,0
7210254,12.871,52.948,1003.206,211,868,16446,0
7210293,19.276,52.948,978.928,316,868,16048,0
7210328,4.575,27.206,997.594,75,446,16354,0
7210366,9.638,3.782,977.952,158,62,16032,0
7210403,12.871,-34.709,978.440,211,-569,16040,0
7210442,24.339,-65.392,971.852,399,-1072,15932,0
7210477,34.465,-92.964,960.689,565,-1524,15749,0
7210514,22.082,-128.649,982.649,362,-2109,16109,0
7210553,45.506,-125.477,966.240,746,-2057,15840,0
7210590,46.848,-143.533,956.480,768,-2353,15680,0
7210625,54.656,-158.478,948.062,896,-2598,15542,0
7210663,62.464,-162.077,964.898,1024,-2657,15818,0
7210700,70.272,-167.506,947.147,1152,-2746,15527,0
7210737,91.439,-173.362,952.271,1499,-2842,15611,0
7210774,78.568,-167.506,963.007,1288,-2746,15787,0
7210812,82.228,-171.105,974.658,1348,-2805,15978,0
7210852,90.951,-180.560,987.773,1491,-2960,16193,0
7210886,101.077,-204.106,1013.454,1657,-3346,16614,0
7210923,99.247,-197.335,996.984,1627,-3235,16344,0
7210962,113.460,-198.738,1000.278,1860,-3258,16398,0
7210997,59.719,-219.905,1047.004,979,-3605,17164,0
7211035,53.314,-208.132,1039.928,874,-3412,17048,0
7211071,27.572,-194.590,1067.988,452,-3190,17508,0
7211109,34.404,-198.677,1075.003,564,-3257,17623,0
7211148,21.594,-181.048,1087.142,354,-2968,17822,0
7211184,25.742,-204.594,1106.784,422,-3354,18144,0
7211220,24.339,-165.737,1103.002,399,-2717,18082,0
7211259,5.978,-162.077,1146.434,98,-2657,18794,0
7211295,28.060,-116.022,1127.280,460,-1902,18480,0
7211332,16.958,-111.508,1172.603,278,-1828,19223,0
7211369,26.169,-81.679,1129.171,429,-1339,18511,0
7211406,1.403,-65.880,1166.991,23,-1080,19131,0
7211443,3.172,-13.908,1152.534,52,-228,18894,0
7211481,-3.660,44.347,1154.852,-60,727,18932,0
7211518,-28.914,40.321,1169.370,-474,661,19170,0
7211556,-6.405,80.520,1157.658,-105,1320,18978,0
7211593,-29.829,96.807,1144.116,-489,1587,18756,0
7211630,-30.317,129.320,1159.549,-497,2120,19009,0
7211667,-44.103,132.980,1139.907,-723,2180,18687,0
7211703,-49.654,151.036,1155.828,-814,2476,18948,0
7211742,-64.294,167.689,1133.380,-1054,2749,18580,0
7211778,-74.420,157.746,1157.658,-1220,2586,18978,0
7211815,-57.462,192.577,1122.156,-942,3157,18396,0
7211852,-68.442,181.719,1122.644,-1122,2979,18404,0
7211889,-71.248,178.120,1123.132,-1168,2920,18412,0
7211927,-56.486,198.433,1109.956,-926,3253,18196,0
7211964,-48.678,205.692,1093.181,-798,3372,17921,0
7212001,-31.232,184.891,1100.684,-512,3031,18044,0
7212038,1.403,174.460,1073.600,23,2860,17600,0
7212075,25.254,162.321,1028.277,414,2661,16857,0
7212112,34.465,138.348,1040.904,565,2268,17064,0
7212152,29.402,138.348,1025.959,482,2268,16819,0
7212191,39.040,140.605,985.760,640,2305,16160,0
7212224,35.380,100.406,1005.402,580,1646,16482,0
7212261,37.637,68.320,983.930,617,1120,16130,0
7212302,38.125,47.092,985.333,625,772,16153,0
7212339,7.808,17.690,975.085,128,290,15985,0
7212373,9.211,-12.566,993.324,151,-206,16284,0
7212410,32.574,-26.962,971.364,534,-442,15924,0
7212449,20.191,-80.764,968.985,331,-1324,15885,0
7212484,12.871,-107.421,968.070,211,-1761,15870,0
7212522,51.911,-110.532,980.148,851,-1812,16068,0
7212558,8.723,-143.106,965.264,143,-2346,15824,0
7212596,54.168,-129.564,952.149,888,-2124,15609,0
7212633,37.698,-157.990,962.458,618,-2590,15778,0
7212670,73.505,-150.304,935.374,1205,-2464,15334,0
7212709,60.146,-195.078,955.443,986,-3198,15663,0
7212744,92.354,-146.278,958.676,1514,-2398,15716,0
7212781,72.590,-171.105,963.800,1190,-2805,15800,0
7212818,70.272,-176.534,973.194,1152,-2894,15954,0
7212856,101.077,-172.874,975.512,1657,-2834,15992,0
7212893,104.737,-190.991,996.496,1717,-3131,16336,0
7212931,116.266,-181.536,999.790,1906,-2976,16390,0
7212968,86.864,-214.476,1004.914,1424,-3516,16474,0
7213008,80.398,-211.792,1057.740,1318,-3472,17340,0
7213043,63.440,-183.305,1053.043,1040,-3005,17263,0
7213079,34.038,-203.191,1087.142,558,-3331,17822,0
7213116,35.380,-177.022,1069.330,580,-2902,17530,0
7213153,33.550,-211.792,1111.908,550,-3472,18228,0
7213191,40.016,-187.392,1084.824,656,-3072,17784,0
7213228,22.082,-170.678,1110.444,362,-2798,18204,0
7213265,37.698,-130.479,1153.449,618,-2139,18909,0
7213303,16.531,-130.479,1140.395,271,-2139,18695,0
7213339,26.230,-102.480,1159.061,430,-1680,19001,0
7213376,19.764,-59.536,1122.156,324,-976,18396,0
7213414,-5.551,-53.680,1158.573,-91,-880,18993,0
7213451,19.276,13.664,1125.938,316,224,18458,0
7213492,-10.553,29.463,1140.395,-173,483,18695,0
7213525,-16.104,54.290,1146.922,-264,890,18802,0
7213562,-32.208,73.688,1149.240,-528,1208,18840,0
7213603,-27.999,116.693,1148.752,-459,1913,18832,0
7213640,-45.933,114.436,1160.952,-753,1876,19032,0
7213674,-45.018,140.605,1137.589,-738,2305,18649,0
7213710,-50.081,169.519,1165.161,-821,2779,19101,0
7213752,-55.998,180.377,1153.022,-918,2957,18902,0
7213789,-58.804,150.548,1152.046,-964,2468,18886,0
7213823,-50.508,178.608,1137.101,-828,2928,18641,0
7213859,-90.524,171.349,1124.962,-1484,2809,18442,0
7213896,-75.335,191.174,1106.723,-1235,3134,18143,0
7213934,-53.314,197.518,1121.668,-874,3238,18388,0
7213973,-34.892,200.690,1097.878,-572,3290,17998,0
7214008,-27.572,190.320,1074.576,-452,3120,17616,0
7214045,2.318,169.092,1054.934,38,2772,17294,0
7214083,9.150,139.690,1044.198,150,2290,17118,0
7214120,35.868,146.949,1034.804,588,2409,16964,0
7214156,24.339,131.577,1007.232,399,2157,16512,0
7214194,28.914,111.691,1009.123,474,1831,16543,0
7214231,14.701,91.805,998.387,241,1505,16367,0
7214270,15.616,72.834,989.542,256,1194,16222,0
7214306,13.786,43.920,989.054,226,720,16214,0
7214343,20.679,23.180,974.536,339,380,15976,0
7214380,3.172,-18.849,977.830,52,-309,16030,0
7214417,12.383,-30.622,951.722,203,-502,15602,0
7214455,49.654,-65.392,955.443,814,-1072,15663,0
7214492,29.402,-111.508,964.288,482,-1828,15808,0
7214528,56.974,-122.732,942.816,934,-2012,15456,0
7214565,18.361,-151.707,974.597,301,-2487,15977,0
7214605,43.188,-155.794,940.010,708,-2554,15410,0
7214641,54.229,-170.190,963.373,889,-2790,15793,0
7214677,51.484,-169.763,938.607,844,-2783,15387,0
7214715,80.886,-186.050,954.955,1326,-3050,15655,0
7214753,69.357,-167.506,954.955,1137,-2746,15655,0
7214789,97.356,-157.990,958.188,1596,-2590,15708,0
7214826,89.121,-166.164,957.761,1461,-2724,15701,0
7214862,122.671,-168.848,964.288,2011,-2768,15808,0
7214900,101.992,-180.560,981.612,1672,-2960,16092,0
7214937,99.247,-201.788,992.775,1627,-3308,16275,0
7214978,90.524,-207.278,1010.526,1484,-3398,16566,0
7215012,60.634,-206.790,1018.944,994,-3390,16704,0
7215051,52.826,-207.278,1057.252,866,-3398,17332,0
7215086,37.210,-189.649,1071.282,610,-3109,17562,0
7215124,23.912,-199.104,1087.142,392,-3264,17822,0
7215161,16.531,-177.022,1103.002,271,-2902,18082,0
7215199,22.936,-179.218,1094.584,376,-2938,17944,0
7215235,10.980,-178.852,1138.992,180,-2932,18672,0
7215272,32.147,-127.734,1121.241,527,-2094,18381,0
7215311,1.403,-134.078,1158.634,23,-2198,18994,0
7215348,18.849,-88.450,1139.907,309,-1450,18687,0
7215384,-1.342,-89.792,1149.728,-22,-1472,18848,0
7215421,-4.148,-36.478,1135.210,-68,-598,18610,0
7215458,0.488,-12.505,1136.186,8,-205,18626,0
7215495,0.000,34.892,1144.116,0,572,18756,0
7215532,-17.934,55.266,1171.200,-294,906,19200,0
7215569,-27.999,88.206,1158.573,-459,1446,18993,0
7215608,-41.785,88.206,1158.573,-685,1446,18993,0
7215645,-43.676,137.006,1154.364,-716,2246,18924,0
7215680,-48.251,151.036,1145.946,-791,2476,18786,0
7215719,-66.124,162.321,1163.758,-1084,2661,19078,0
7215757,-66.612,171.349,1143.628,-1092,2809,18748,0
7215796,-67.527,188.978,1141.798,-1107,3098,18718,0
7215830,-76.738,176.290,1132.892,-1258,2890,18572,0
7215866,-86.803,182.207,1135.210,-1423,2987,18610,0
7215904,-64.294,204.289,1105.808,-1054,3349,18128,0
7215942,-62.037,205.204,1101.599,-1017,3364,18059,0
7215978,-39.528,204.777,1097.878,-648,3357,17998,0
7216019,-7.320,197.091,1058.167,-120,3231,17347,0
7216053,18.422,175.375,1073.112,302,2875,17592,0
7216090,11.468,150.548,1032.486,188,2468,16926,0
7216127,32.635,158.722,1029.680,535,2602,16880,0
7216163,7.808,139.263,1023.580,128,2283,16780,0
7216203,21.106,119.377,1016.626,346,1957,16666,0
7216238,3.660,100.406,988.139,60,1646,16199,0
7216275,24.339,59.292,1001.681,399,972,16421,0
7216313,10.553,29.036,977.403,173,476,16023,0
7216354,23.424,28.609,980.636,384,469,16076,0
7216387,39.528,-4.880,968.924,648,-80,15884,0
7216424,4.636,-51.850,954.528,76,-850,15648,0
7216461,29.402,-67.649,969.412,482,-1109,15892,0
7216498,27.999,-104.249,966.179,459,-1709,15839,0
7216536,44.591,-137.250,946.598,731,-2250,15518,0
7216573,47.336,-116.876,963.373,776,-1916,15793,0
7216612,33.062,-175.619,964.776,542,-2879,15816,0
7216651,69.784,-142.191,949.831,1144,-2331,15571,0
7216685,71.187,-165.188,956.846,1167,-2708,15686,0
7216721,71.248,-173.362,956.358,1168,-2842,15678,0
7216763,101.077,-171.105,935.374,1657,-2805,15334,0
7216798,75.762,-181.963,954.040,1242,-2983,15640,0
7216833,112.118,-166.164,975.024,1838,-2724,15984,0
7216871,93.269,-179.706,985.333,1529,-2946,16153,0
7216908,82.716,-200.019,982.954,1356,-3279,16114,0
7216945,105.225,-192.333,978.806,1725,-3153,16046,0
7216982,66.612,-209.962,1027.850,1092,-3442,16850,0
7217020,53.314,-187.392,1040.904,874,-3072,17064,0
7217058,32.574,-198.677,1045.052,534,-3257,17132,0
7217093,7.320,-188.734,1079.212,120,-3094,17692,0
7217131,24.339,-194.163,1100.196,399,-3183,18036,0
7217167,34.892,-188.246,1078.236,572,-3086,17676,0
7217204,11.468,-187.880,1125.877,188,-3080,18457,0
7217242,-1.830,-162.077,1124.962,-30,-2657,18442,0
7217279,24.766,-133.163,1145.946,406,-2183,18786,0
7217316,27.572,-121.024,1140.822,452,-1984,18702,0
7217353,13.298,-102.907,1149.240,218,-1687,18840,0
7217394,28.914,-47.336,1125.877,474,-776,18457,0
7217428,-7.808,-47.824,1152.961,-128,-784,18901,0
7217465,11.468,21.350,1135.210,188,350,18610,0
7217504,-24.339,35.807,1171.200,-399,587,19200,0
7217542,0.000,84.607,1139.480,0,1387,18680,0
7217577,-27.999,88.206,1139.480,-459,1446,18680,0
7217614,-60.634,109.434,1161.867,-994,1794,19047,0
7217655,-29.829,134.688,1140.822,-489,2208,18702,0
7217689,-57.462,137.006,1146.434,-942,2246,18794,0
7217725,-61.549,162.321,1136.674,-1009,2661,18634,0
7217766,-52.399,177.205,1148.325,-859,2905,18825,0
7217801,-62.952,158.722,1139.419,-1032,2602,18679,0
7217841,-57.401,194.834,1126.365,-941,3194,18465,0
7217874,-78.080,178.120,1131.977,-1280,2920,18557,0
7217911,-83.570,211.975,1108.614,-1370,3475,18174,0
7217948,-51.423,186.660,1115.629,-843,3060,18289,0
7217985,-36.722,213.805,1074.942,-602,3505,17622,0
7218025,-5.490,173.606,1072.685,-90,2846,17585,0
7218060,30.317,166.774,1041.392,497,2734,17072,0
7218097,27.572,145.546,1022.177,452,2386,16757,0
7218134,45.018,139.263,1033.889,738,2283,16949,0
7218172,35.868,140.605,1023.580,588,2305,16780,0
7218208,19.337,118.035,1015.650,317,1935,16650,0
7218245,33.550,93.635,996.984,550,1535,16344,0
7218284,20.679,57.523,970.876,339,943,15916,0
7218321,26.230,28.182,970.876,430,462,15916,0
7218357,22.509,12.322,969.900,369,202,15900,0
7218395,7.808,-24.278,963.373,128,-398,15793,0
7218432,28.914,-49.166,947.025,474,-806,15525,0
7218472,23.912,-91.622,961.055,392,-1502,15755,0
7218506,43.188,-99.735,961.482,708,-1635,15762,0
7218543,21.594,-127.246,954.040,354,-2086,15640,0
7218581,40.870,-129.076,956.846,670,-2116,15686,0
7218619,54.229,-152.622,967.582,889,-2502,15862,0
7218654,55.144,-157.990,953.064,904,-2590,15624,0
7218696,73.017,-166.164,923.662,1197,-2724,15142,0
7218733,42.700,-174.277,949.404,700,-2857,15564,0
7218766,89.121,-152.134,961.543,1461,-2494,15763,0
7218803,98.759,-162.992,964.288,1619,-2672,15808,0
7218844,95.526,-182.390,973.194,1566,-2990,15954,0
7218877,113.460,-167.933,965.752,1860,-2753,15832,0
7218915,98.332,-195.505,976.976,1612,-3205,16016,0
7218953,105.652,-191.418,989.542,1732,-3138,16222,0
7218989,63.440,-212.646,1007.232,1040,-3486,16512,0
7219026,59.231,-177.876,1024.556,971,-2916,16796,0
7219064,25.742,-203.191,1047.004,422,-3331,17164,0
7219101,29.890,-204.533,1078.724,490,-3353,17684,0
7219137,35.807,-180.133,1064.267,587,-2953,17447,0
7219174,17.934,-211.792,1089.460,294,-3472,17860,0
7219213,21.594,-177.022,1122.156,354,-2902,18396,0
7219252,33.062,-146.278,1094.584,542,-2398,17944,0
7219287,15.128,-139.019,1127.280,248,-2279,18480,0
7219324,32.574,-109.678,1151.070,534,-1798,18870,0
7219361,1.830,-74.908,1139.419,30,-1228,18679,0
7219400,14.701,-56.364,1141.798,241,-924,18718,0
7219436,5.002,-12.993,1150.216,82,-213,18856,0
7219472,14.213,16.836,1134.295,233,276,18595,0
7219512,-14.274,45.750,1146.434,-234,750,18794,0
7219549,-22.936,81.374,1149.240,-376,1334,18840,0
7219584,-41.785,97.661,1166.076,-685,1601,19116,0
7219621,-24.339,132.492,1150.704,-399,2172,18864,0
7219660,-67.527,122.549,1144.604,-1107,2009,18764,0
7219695,-45.506,147.864,1130.086,-746,2424,18526,0
7219733,-46.848,160.064,1110.078,-768,2624,18198,0
7219770,-65.697,171.776,1143.628,-1077,2816,18748,0
7219808,-77.653,149.206,1140.822,-1273,2446,18702,0
7219844,-81.313,170.861,1131.489,-1333,2801,18549,0
7219881,-83.570,178.120,1109.102,-1370,2920,18182,0
7219919,-62.464,207.034,1099.708,-1024,3394,18028,0
7219957,-64.294,188.063,1117.032,-1054,3083,18312,0
7219993,-16.104,196.176,1083.421,-264,3216,17761,0
7220030,-14.274,175.375,1084.763,-234,2875,17783,0
7220067,24.827,174.948,1026.874,407,2868,16834,0
7220104,7.381,155.062,1035.292,121,2542,16972,0
7220142,25.254,161.406,1021.750,414,2646,16750,0
7220178,-0.488,114.863,1035.292,-8,1883,16972,0
7220215,15.616,139.263,1012.844,256,2283,16604,0
7220253,19.276,61.976,994.666,316,1016,16306,0
7220289,17.446,62.037,989.054,286,1017,16214,0
7220327,45.933,28.121,959.652,753,461,15732,0
7220364,11.468,6.893,959.652,188,113,15732,0
7220404,28.914,-26.108,967.094,474,-428,15854,0
7220440,32.635,-59.048,970.388,535,-968,15908,0
7220476,57.889,-95.160,952.149,949,-1560,15609,0
7220513,35.380,-126.392,972.706,580,-2072,15946,0
7220549,26.230,-118.706,972.279,430,-1946,15939,0
7220587,43.676,-132.248,943.792,716,-2168,15472,0
7220625,54.229,-148.535,961.543,889,-2435,15763,0
7220662,67.527,-171.593,952.149,1107,-2813,15609,0
7220702,85.888,-158.905,955.870,1408,-2605,15670,0
7220740,79.056,-174.704,932.080,1296,-2864,15280,0
7220774,101.504,-173.362,947.452,1664,-2842,15532,0
7220810,91.866,-172.508,977.342,1506,-2828,16022,0
7220851,103.822,-163.907,975.512,1702,-2687,15992,0
7220885,89.609,-200.080,986.736,1469,-3280,16176,0
7220922,85.461,-187.392,1017.541,1401,-3072,16681,0
7220959,97.417,-211.304,999.790,1597,-3464,16390,0
7220997,56.974,-196.847,1038.525,934,-3227,17025,0
7221034,45.506,-189.222,1050.664,746,-3102,17224,0
7221070,27.084,-186.904,1043.222,444,-3064,17102,0
7221108,18.849,-192.394,1078.724,309,-3154,17684,0
7221145,44.103,-177.876,1074.088,723,-2916,17608,0
7221182,11.468,-199.104,1100.684,188,-3264,18044,0
7221219,16.104,-164.334,1096.475,264,-2694,17975,0
7221256,8.784,-159.393,1124.962,144,-2613,18442,0
7221295,12.871,-124.623,1138.504,211,-2043,18664,0
7221331,18.849,-105.652,1167.906,309,-1732,19146,0
7221368,10.126,-71.248,1125.877,166,-1168,18457,0
7221404,-11.468,-45.933,1145.946,-188,-753,18786,0
7221444,-12.810,1.952,1137.589,-210,32,18649,0
7221480,-14.701,25.010,1142.286,-241,410,18726,0
7221516,-33.062,47.092,1148.264,-542,772,18824,0
7221555,-22.509,73.322,1145.031,-369,1202,18771,0
7221592,-31.720,102.663,1150.216,-520,1683,18856,0
7221628,-50.996,117.608,1154.852,-836,1928,18932,0
7221665,-53.741,134.688,1153.022,-881,2208,18902,0
7221705,-60.634,165.432,1131.489,-994,2712,18549,0
7221743,-60.634,171.776,1159.061,-994,2816,19001,0
7221778,-54.168,180.804,1130.086,-888,2964,18526,0
7221814,-70.760,180.804,1159.061,-1160,2964,19001,0
7221854,-57.889,186.660,1119.838,-949,3060,18358,0
7221889,-88.206,177.205,1139.907,-1446,2905,18687,0
7221925,-55.632,211.548,1085.678,-912,3468,17798,0
7221967,-47.336,183.976,1102.087,-776,3016,18067,0
7221999,-13.786,198.860,1058.655,-226,3260,17355,0
7222037,2.745,187.148,1066.585,45,3068,17485,0
7222074,7.381,152.805,1053.470,121,2505,17270,0
7222112,31.232,167.750,1013.820,512,2750,16620,0
7222152,-4.148,128.466,1033.889,-68,2106,16949,0
7222189,39.528,150.121,1010.038,648,2461,16558,0
7222223,30.744,108.092,1017.053,504,1772,16673,0
7222260,40.016,70.150,997.960,656,1150,16360,0
7222301,8.296,32.635,1005.402,136,535,16482,0
7222335,27.572,19.520,978.318,452,320,16038,0
7222372,15.616,-6.222,960.140,256,-102,15740,0
7222410,25.254,-43.676,974.536,414,-716,15976,0
7222448,33.062,-74.420,958.249,542,-1220,15709,0
7222483,31.232,-104.676,969.412,512,-1716,15892,0
7222520,36.295,-115.534,958.249,595,-1894,15709,0
7222557,19.764,-133.163,973.194,324,-2183,15954,0
7222597,56.974,-144.448,948.916,934,-2368,15556,0
7222632,55.144,-149.877,936.716,904,-2457,15356,0
7222669,71.675,-142.191,924.638,1175,-2331,15158,0
7222706,61.122,-167.506,954.040,1002,-2746,15640,0
7222746,83.570,-153.476,953.064,1370,-2516,15624,0
7222781,101.992,-162.504,950.746,1672,-2664,15586,0
7222818,98.332,-171.532,975.024,1612,-2812,15984,0
7222854,99.247,-167.933,974.597,1627,-2753,15977,0
7222892,100.650,-183.305,978.318,1650,-3005,16038,0
7222929,87.291,-200.934,997.960,1431,-3294,16360,0
7222967,72.102,-194.163,992.348,1182,-3183,16268,0
7223008,56.059,-195.505,1003.999,919,-3205,16459,0
7223044,40.443,-190.564,1032.059,663,-3124,16919,0
7223079,41.846,-182.878,1065.182,686,-2998,17462,0
7223115,34.465,-201.361,1081.042,565,-3301,17722,0
7223153,20.191,-200.019,1104.832,331,-3279,18112,0
7223193,35.380,-177.449,1082.018,580,-2909,17738,0
7223227,12.871,-172.508,1124.962,211,-2828,18442,0
7223264,19.764,-156.648,1112.335,324,-2568,18235,0
7223302,29.890,-113.765,1132.404,490,-1865,18564,0
7223342,1.403,-115.534,1164.185,23,-1894,19085,0
7223375,-1.830,-64.050,1124.962,-30,-1050,18442,0
7223412,10.126,-41.480,1144.116,166,-680,18756,0
7223450,-22.082,-10.736,1152.046,-362,-176,18886,0
7223487,-8.784,43.493,1126.304,-144,713,18464,0
7223524,-17.446,52.948,1149.240,-286,868,18840,0
7223561,-33.977,87.291,1151.558,-557,1431,18878,0
7223600,-35.380,106.262,1145.519,-580,1742,18779,0
7223635,-22.082,128.405,1143.201,-362,2105,18741,0
7223673,-51.484,162.321,1153.449,-844,2661,18909,0
7223711,-55.144,149.633,1160.464,-904,2453,19024,0
7223747,-47.763,176.778,1134.783,-783,2898,18603,0
7223784,-62.952,179.462,1126.365,-1032,2942,18465,0
7223821,-73.932,158.722,1134.783,-1212,2602,18603,0
7223861,-63.867,182.634,1095.072,-1047,2994,17952,0
7223896,-78.080,179.462,1115.202,-1280,2942,18282,0
7223933,-69.845,206.546,1091.778,-1145,3386,17898,0
7223970,-40.870,202.520,1089.887,-670,3320,17867,0
7224008,6.893,199.348,1077.321,113,3268,17661,0
7224045,2.806,165.432,1070.306,46,2712,17546,0
7224081,32.208,169.519,1045.113,528,2779,17133,0
7224119,20.679,150.975,1007.232,339,2475,16512,0
7224156,22.509,146.034,1003.084,369,2394,16444,0
7224194,26.657,117.547,1005.829,437,1927,16489,0
7224230,33.977,100.406,1010.526,557,1646,16566,0
7224267,22.509,78.690,986.248,369,1290,16168,0
7224305,13.786,56.120,956.846,226,920,15686,0
7224341,22.936,27.206,974.597,376,446,15977,0
7224379,39.040,-8.906,968.070,640,-146,15870,0
7224416,36.295,-34.221,970.388,595,-561,15908,0
7224454,36.722,-87.474,970.876,602,-1434,15916,0
7224493,29.402,-95.221,953.064,482,-1561,15624,0
7224528,40.443,-124.562,956.846,663,-2042,15686,0
7224564,47.763,-127.734,939.522,783,-2094,15402,0
7224604,45.933,-149.450,950.746,753,-2450,15586,0
7224641,50.081,-146.705,939.583,821,-2405,15403,0
7224676,79.910,-159.820,949.404,1310,-2620,15564,0
7224713,71.248,-156.648,948.916,1168,-2568,15556,0
7224755,80.886,-175.192,959.164,1326,-2872,15724,0
7224792,95.099,-172.020,957.761,1559,-2820,15701,0
7224825,90.036,-177.876,970.876,1476,-2916,15916,0
7224862,97.417,-162.992,982.039,1597,-2672,16099,0
7224900,80.398,-201.361,971.303,1318,-3301,15923,0
7224936,78.995,-179.706,1002.596,1295,-2946,16436,0
7224978,49.593,-205.875,1020.347,813,-3375,16727,0
7225010,67.954,-188.734,1020.835,1114,-3094,16735,0
7225048,40.870,-183.305,1046.516,670,-3005,17156,0
7225085,44.591,-193.736,1083.848,731,-3176,17768,0
7225122,13.298,-194.590,1086.654,218,-3190,17814,0
7225162,45.994,-187.880,1119.838,754,-3080,18358,0
7225197,22.082,-194.590,1105.320,362,-3190,18120,0
7225234,14.701,-163.907,1120.753,241,-2687,18373,0
7225273,16.043,-136.762,1145.458,263,-2242,18778,0
7225310,21.106,-105.591,1133.380,346,-1731,18580,0
7225345,14.274,-94.306,1134.356,234,-1546,18596,0
7225382,10.126,-80.764,1145.946,166,-1324,18786,0
7225420,4.148,-21.594,1133.380,68,-354,18580,0
7225459,-12.444,-3.904,1154.364,-204,-64,18924,0
7225494,-23.912,37.210,1134.356,-392,610,18596,0
7225531,-12.932,71.980,1151.558,-212,1180,18878,0
7225568,-22.509,85.949,1148.325,-369,1409,18825,0
7225606,-36.295,108.092,1141.798,-595,1772,18718,0
7225643,-26.230,133.346,1120.753,-430,2186,18373,0
7225680,-70.760,130.662,1145.946,-1160,2142,18786,0
7225717,-53.314,169.946,1158.634,-874,2786,18994,0
7225755,-76.738,168.665,1139.480,-1258,2765,18680,0
7225792,-55.632,178.974,1132.892,-912,2934,18572,0
7225828,-89.548,163.175,1131.062,-1468,2675,18542,0
7225867,-50.020,198.433,1113.738,-820,3253,18258,0
7225903,-73.505,172.752,1130.086,-1205,2832,18526,0
7225940,-38.613,231.434,1078.724,-633,3794,17684,0
7225977,-60.207,171.776,1125.938,-987,2816,18458,0
7226017,5.978,199.348,1058.228,98,3268,17348,0
7226052,14.762,168.604,1035.292,242,2764,16972,0
7226092,6.466,154.208,1039.013,106,2528,17033,0
7226127,45.506,175.863,988.566,746,2883,16206,0
7226163,18.788,138.836,1049.749,308,2276,17209,0
7226201,17.934,116.693,1012.844,294,1913,16604,0
7226238,22.509,104.066,1002.596,369,1706,16436,0
7226275,23.851,69.662,986.736,391,1142,16176,0
7226312,10.614,34.892,984.906,174,572,16146,0
7226351,14.640,22.265,964.776,240,365,15816,0
7226389,36.295,-21.106,961.482,595,-346,15762,0
7226424,18.849,-52.277,964.776,309,-857,15816,0
7226460,24.339,-91.561,972.706,399,-1501,15946,0
7226499,13.298,-105.591,954.528,218,-1731,15648,0
7226535,57.401,-113.765,964.288,941,-1865,15808,0
7226572,30.744,-141.276,975.024,504,-2316,15984,0
7226609,61.549,-139.934,949.343,1009,-2294,15563,0
7226646,55.144,-151.707,976.854,904,-2487,16014,0
7226688,76.250,-150.304,951.661,1250,-2464,15601,0
7226721,70.760,-174.704,961.055,1160,-2864,15755,0
7226758,69.784,-165.676,965.264,1144,-2716,15824,0
7226799,94.672,-165.676,946.598,1552,-2716,15518,0
7226833,81.740,-169.336,1004.487,1340,-2776,16467,0
7226869,118.035,-167.079,978.745,1935,-2739,16045,0
7226907,85.888,-199.104,990.884,1408,-3264,16244,0
7226944,92.781,-190.076,1011.502,1521,-3116,16582,0
7226981,68.930,-188.307,1022.238,1130,-3087,16758,0
7227017,56.059,-204.533,1022.238,919,-3353,16758,0
7227057,30.805,-200.507,1089.033,505,-3287,17853,0
7227093,37.210,-194.163,1060.973,610,-3183,17393,0
7227129,45.506,-181.902,1098.793,746,-2982,18013,0
7227167,25.254,-203.618,1105.381,414,-3338,18121,0
7227204,42.273,-177.449,1095.560,693,-2909,17960,0
7227241,20.252,-157.990,1127.768,332,-2590,18488,0
7227278,9.211,-154.391,1144.604,151,-2531,18764,0
7227315,35.868,-101.992,1125.938,588,-1672,18458,0
7227353,14.701,-91.134,1138.504,241,-1494,18664,0
7227390,11.468,-71.248,1140.822,188,-1168,18702,0
7227427,2.745,-4.880,1147.410,45,-80,18810,0
7227465,-6.405,10.065,1147.410,-105,165,18810,0
7227503,-22.082,52.948,1147.837,-362,868,18817,0
7227539,-11.956,74.664,1148.325,-196,1224,18825,0
7227575,-19.276,85.888,1145.031,-316,1408,18771,0
7227614,-22.509,116.205,1169.370,-369,1905,19170,0
7227650,-29.402,122.976,1148.325,-482,2016,18825,0
7227687,-60.634,148.718,1174.494,-994,2438,19254,0
7227726,-42.273,189.405,1136.186,-693,3105,18626,0
7227761,-51.484,169.519,1151.619,-844,2779,18879,0
7227800,-68.015,174.521,1136.186,-1115,2861,18626,0
7227837,-70.760,172.264,1112.762,-1160,2824,18242,0
7227873,-62.952,204.777,1127.768,-1032,3357,18488,0
7227910,-56.486,187.148,1127.280,-926,3068,18480,0
7227947,-58.804,198.860,1106.296,-964,3260,18136,0
7227985,-31.720,197.518,1086.654,-520,3238,17814,0
7228022,-4.575,191.662,1079.212,-75,3142,17692,0
7228061,18.788,174.460,1062.376,308,2860,17416,0
7228100,20.252,166.347,1015.650,332,2727,16650,0
7228134,16.531,146.034,1035.780,271,2394,16980,0
7228170,33.550,147.376,1004.060,550,2416,16460,0
7228209,27.572,120.780,1011.990,452,1980,16590,0
7228244,20.618,81.435,992.775,338,1335,16275,0
7228282,23.912,66.490,995.154,392,1090,16314,0
7228319,16.043,32.635,970.815,263,535,15915,0
7228358,11.956,10.980,983.442,196,180,16122,0
7228394,24.339,-22.448,970.388,399,-368,15908,0
7228430,28.914,-47.336,970.815,474,-776,15915,0
7228468,44.103,-96.624,992.775,723,-1584,16275,0
7228505,40.016,-106.506,969.900,656,-1746,15900,0
7228542,30.317,-125.477,973.621,497,-2057,15961,0
7228579,67.466,-137.677,966.667,1106,-2257,15847,0
7228616,49.593,-158.478,944.219,813,-2598,15479,0
7228654,73.932,-153.476,956.846,1212,-2516,15686,0
7228691,73.993,-157.563,956.846,1213,-2583,15686,0
7228728,96.502,-160.308,933.483,1582,-2628,15303,0
7228765,77.653,-153.964,948.916,1273,-2524,15556,0
7228802,85.888,-175.192,950.258,1408,-2872,15578,0
7228839,93.269,-163.907,970.388,1529,-2687,15908,0
7228876,113.033,-180.133,975.024,1853,-2953,15984,0
7228914,100.162,-188.734,988.627,1642,-3094,16207,0
7228951,78.080,-190.076,1011.929,1280,-3116,16589,0
7228988,56.059,-210.450,1025.959,919,-3450,16819,0
7229027,69.418,-194.590,1010.526,1138,-3190,16566,0
7229062,22.509,-192.333,1060.546,369,-3153,17386,0
7229101,10.553,-199.592,1066.158,173,-3272,17478,0
7229137,19.276,-188.307,1082.506,316,-3087,17746,0
7229174,1.830,-225.822,1109.590,30,-3702,18190,0
7229211,24.827,-157.990,1106.296,407,-2590,18136,0
7229248,5.978,-162.992,1117.032,98,-2672,18312,0
7229285,0.000,-140.422,1143.628,0,-2302,18748,0
7229322,27.084,-104.310,1133.380,444,-1710,18580,0
7229362,1.830,-80.276,1139.419,30,-1316,18679,0
7229401,-1.403,-63.135,1142.225,-23,-1035,18725,0
7229434,-8.723,-26.535,1153.449,-143,-435,18909,0
7229471,17.934,24.034,1144.116,294,394,18756,0
7229513,-22.448,48.007,1154.425,-368,787,18925,0
7229550,-11.041,90.524,1155.767,-181,1484,18947,0
7229584,-43.188,90.036,1168.882,-708,1476,19162,0
7229620,-37.210,112.179,1139.907,-610,1839,18687,0
7229657,-51.484,142.862,1157.658,-844,2342,18978,0
7229695,-68.442,140.178,1169.309,-1122,2298,19169,0
7229732,-30.744,169.519,1131.916,-504,2779,18556,0
7229768,-60.146,162.748,1155.340,-986,2668,18940,0
7229806,-58.316,170.434,1116.544,-956,2794,18304,0
7229843,-78.995,184.464,1130.574,-1295,3024,18534,0
7229880,-66.612,194.407,1114.653,-1092,3187,18273,0
7229917,-58.316,194.346,1105.320,-956,3186,18120,0
7229954,-59.658,202.947,1097.390,-978,3327,17990,0
7229991,-9.150,210.145,1065.609,-150,3445,17469,0
7230033,-1.830,164.517,1081.042,-30,2697,17722,0
7230067,17.934,164.578,1044.198,294,2698,17118,0
7230104,27.084,144.692,1023.153,444,2372,16773,0
7230141,9.211,158.722,1020.347,151,2602,16727,0
7230178,48.678,143.350,1027.362,798,2350,16842,0
7230216,19.764,108.519,1020.347,324,1779,16727,0
7230254,25.254,90.036,1003.084,414,1476,16444,0
7230289,5.063,55.266,989.969,83,906,16229,0
7230326,8.235,30.378,994.178,135,498,16298,0
7230364,27.084,12.749,951.722,444,209,15602,0
7230402,22.082,-36.051,979.294,362,-591,16054,0
7230438,19.764,-64.050,951.722,324,-1050,15602,0
7230477,26.657,-101.138,962.946,437,-1658,15786,0
7230514,33.977,-103.822,965.264,557,-1702,15824,0
7230553,21.106,-145.363,969.412,346,-2383,15892,0
7230586,47.336,-120.048,943.304,776,-1968,15464,0
7230623,50.081,-168.848,942.816,821,-2768,15456,0
7230665,70.272,-148.962,933.971,1152,-2442,15311,0
7230702,65.697,-173.362,959.164,1077,-2842,15724,0
7230736,84.973,-152.622,940.010,1393,-2502,15410,0
7230773,68.930,-164.822,944.219,1130,-2702,15479,0
7230810,86.864,-173.362,959.164,1424,-2842,15724,0
7230847,89.121,-170.190,961.482,1461,-2790,15762,0
7230884,85.888,-177.449,991.860,1408,-2909,16260,0
7230921,88.206,-181.963,996.069,1446,-2983,16329,0
7230959,68.442,-200.080,1025.959,1122,-3280,16819,0
7230997,80.886,-199.104,1027.362,1326,-3264,16842,0
7231032,45.018,-196.420,1032.486,738,-3220,16926,0
7231069,21.594,-191.479,1059.570,354,-3139,17370,0
7231107,33.550,-204.594,1068.964,550,-3354,17524,0
7231148,27.572,-179.706,1103.002,452,-2946,18082,0
7231183,19.764,-210.450,1089.460,324,-3450,17860,0
7231218,9.150,-182.390,1138.992,150,-2990,18672,0
7231257,21.594,-151.219,1123.071,354,-2479,18411,0
7231295,30.317,-117.364,1140.334,497,-1924,18694,0
7231332,0.915,-99.308,1131.977,15,-1628,18557,0
7231367,7.320,-90.280,1160.952,120,-1480,19032,0
7231406,12.871,-40.504,1139.480,211,-664,18680,0
7231442,-2.745,-15.677,1150.643,-45,-257,18863,0
7231479,-6.466,24.522,1137.101,-106,402,18641,0
7231516,-24.827,54.290,1165.100,-407,890,19100,0
7231552,-16.958,71.919,1162.294,-278,1179,19054,0
7231590,-39.528,101.748,1146.922,-648,1668,18802,0
7231627,-33.062,137.006,1136.674,-542,2246,18634,0
7231664,-44.591,138.348,1163.758,-731,2268,19078,0
7231704,-60.207,160.064,1137.101,-987,2624,18641,0
7231739,-64.294,162.748,1160.464,-1054,2668,19024,0
7231777,-71.187,188.063,1161.867,-1167,3083,19047,0
7231813,-64.782,186.721,1132.404,-1062,3061,18564,0
7231850,-71.675,178.608,1128.744,-1175,2928,18504,0
7231888,-71.187,202.032,1127.280,-1167,3312,18480,0
7231925,-47.336,209.718,1110.993,-776,3438,18213,0
7231963,-67.527,203.862,1122.156,-1107,3342,18396,0
7232000,3.233,216.062,1081.042,53,3542,17722,0
7232036,3.172,173.606,1088.118,52,2846,17838,0
7232074,36.295,161.833,1050.237,595,2653,17217,0
7232110,44.103,149.206,1024.556,723,2446,16796,0
7232152,13.298,147.376,1020.408,218,2416,16728,0
7232188,45.018,144.692,1012.844,738,2372,16604,0
7232222,26.657,126.575,1002.108,437,2075,16428,0
7232259,7.808,58.865,1004.060,128,965,16460,0
7232298,15.616,62.464,972.218,256,1024,15938,0
7232335,-2.318,15.921,996.496,-38,261,16336,0
7232371,25.254,-3.477,977.342,414,-57,16022,0
7232409,17.934,-42.822,968.497,294,-702,15877,0
7232445,26.657,-54.534,991.860,437,-894,16260,0
7232482,31.232,-106.018,976.915,512,-1738,16015,0
7232519,37.698,-110.532,978.318,618,-1812,16038,0
7232556,35.807,-151.646,971.791,587,-2486,15931,0
7232594,38.125,-139.934,936.289,625,-2294,15349,0
7232631,36.295,-172.935,960.079,595,-2835,15739,0
7232668,55.998,-161.650,966.179,918,-2650,15839,0
7232707,71.187,-161.650,947.452,1167,-2650,15532,0
7232742,64.782,-174.277,959.652,1062,-2857,15732,0
7232780,73.444,-171.593,965.203,1204,-2813,15823,0
7232817,76.738,-174.704,965.264,1258,-2864,15824,0
7232854,104.798,-177.449,975.512,1718,-2909,15992,0
7232891,94.672,-183.732,986.248,1552,-3012,16168,0
7232929,72.102,-206.790,1000.278,1182,-3390,16398,0
7232968,68.930,-189.649,994.666,1130,-3109,16306,0
7233003,55.144,-206.790,1021.750,904,-3390,16750,0
7233040,43.188,-181.048,1041.880,708,-2968,17080,0
7233077,16.531,-210.450,1073.112,271,-3450,17592,0
7233114,22.082,-186.904,1084.336,362,-3064,17776,0
7233154,6.405,-191.418,1099.281,105,-3138,18021,0
7233190,24.339,-202.276,1108.126,399,-3316,18166,0
7233225,37.698,-171.532,1132.465,618,-2812,18565,0
7233265,16.958,-147.620,1138.504,278,-2420,18664,0
7233300,2.318,-127.734,1140.822,38,-2094,18702,0
7233341,10.126,-83.936,1128.744,166,-1376,18504,0
7233374,-2.745,-72.163,1156.682,-45,-1183,18962,0
7233411,3.233,-49.166,1150.643,53,-806,18863,0
7233448,-14.701,0.549,1116.056,-241,9,18296,0
7233486,4.148,40.321,1150.643,68,661,18863,0
7233523,-5.978,73.322,1138.992,-98,1202,18672,0
7233560,-35.380,70.150,1158.573,-580,1150,18993,0
7233600,-20.252,97.234,1139.907,-332,1594,18687,0
7233634,-31.720,118.462,1145.092,-520,1942,18772,0
7233672,-39.528,139.263,1151.070,-648,2283,18870,0
7233711,-59.231,160.491,1160.464,-971,2631,19024,0
7233748,-60.634,159.576,1148.325,-994,2616,18825,0
7233784,-76.250,188.063,1132.892,-1250,3083,18572,0
7233821,-83.143,175.863,1145.031,-1363,2883,18771,0
7233857,-57.889,203.374,1099.708,-949,3334,18028,0
7233895,-84.546,185.318,1118.435,-1386,3038,18335,0
7233932,-45.506,206.180,1099.281,-746,3380,18021,0
7233973,-38.552,199.836,1090.375,-632,3276,17875,0
7234007,-22.509,201.605,1091.778,-369,3305,17898,0
7234043,9.211,160.918,1064.694,151,2638,17454,0
7234080,10.126,156.404,1051.640,166,2564,17240,0
7234118,30.744,175.863,1034.377,504,2883,16957,0
7234157,15.128,137.006,1039.013,248,2246,17033,0
7234194,41.358,135.176,1008.696,678,2216,16536,0
7234229,20.191,101.260,1011.502,331,1660,16582,0
7234271,22.936,66.063,988.139,376,1083,16199,0
7234306,31.659,53.863,966.606,519,883,15846,0
7234345,8.723,12.322,983.015,143,202,16115,0
7234378,18.422,-4.819,994.178,302,-79,16298,0
7234415,15.128,-40.565,992.348,248,-665,16268,0
7234457,32.635,-70.882,993.263,535,-1162,16283,0
7234490,42.700,-105.164,960.140,700,-1724,15740,0
7234527,22.509,-126.819,983.442,369,-2079,16122,0
7234568,56.486,-120.902,963.800,926,-1982,15800,0
7234601,36.356,-157.075,982.527,596,-2575,16107,0
7234639,80.398,-131.821,935.801,1318,-2161,15341,0
7234675,56.974,-179.279,966.179,934,-2939,15839,0
7234714,70.760,-169.336,967.094,1160,-2776,15854,0
7234752,77.592,-165.249,935.801,1272,-2709,15341,0
7234787,72.102,-176.107,985.333,1182,-2887,16153,0
7234824,111.142,-149.877,937.692,1822,-2457,15372,0
7234862,70.272,-176.046,975.512,1152,-2886,15992,0
7234898,93.269,-174.704,988.139,1529,-2864,16199,0
7234936,71.248,-195.505,1017.114,1168,-3205,16674,0
7234973,77.653,-199.104,1016.138,1273,-3264,16658,0
7235011,51.911,-200.019,1036.695,851,-3279,16995,0
7235049,39.528,-190.991,1059.082,648,-3131,17362,0
7235088,8.296,-182.390,1081.530,136,-2990,17730,0
7235122,26.657,-199.592,1090.863,437,-3272,17883,0
7235159,30.317,-191.906,1083.360,497,-3146,17760,0
7235200,27.999,-200.934,1120.326,459,-3294,18366,0
7235234,19.276,-157.990,1115.141,316,-2590,18281,0
7235270,20.679,-153.476,1140.395,339,-2516,18695,0
7235307,-5.978,-133.651,1153.022,-98,-2191,18902,0
7235345,10.614,-92.964,1150.216,174,-1524,18856,0
7235382,2.745,-69.479,1154.364,45,-1139,18924,0
7235419,19.276,-31.476,1121.668,316,-516,18388,0
7235458,-10.126,4.636,1164.673,-166,76,19093,0
7235493,-11.956,26.291,1147.837,-196,431,18817,0
7235531,1.830,62.464,1159.976,30,1024,19016,0
7235568,-27.084,86.864,1164.673,-444,1424,19093,0
7235604,-25.254,113.948,1161.440,-414,1868,19040,0
7235642,-35.380,137.006,1131.062,-580,2246,18542,0
7235680,-62.037,146.034,1154.852,-1017,2394,18932,0
7235717,-43.188,178.120,1119.350,-708,2920,18350,0
7235755,-55.998,172.752,1158.634,-918,2832,18994,0
7235791,-47.763,180.377,1128.256,-783,2957,18496,0
7235828,-72.590,177.266,1141.310,-1190,2906,18710,0
7235865,-65.209,194.834,1119.350,-1069,3194,18350,0
7235902,-65.270,202.032,1104.893,-1070,3312,18113,0
7235939,-82.716,205.692,1101.172,-1356,3372,18052,0
7235976,-40.870,200.690,1103.978,-670,3290,18098,0
7236014,-19.764,194.346,1073.112,-324,3186,17592,0
7236051,9.211,178.608,1067.988,151,2928,17508,0
7236092,9.211,157.807,1038.098,151,2587,17018,0
7236126,46.360,152.805,1015.650,760,2505,16650,0
7236162,30.317,151.036,993.324,497,2476,16284,0
7236200,29.402,135.664,993.751,482,2224,16291,0
7236241,34.465,122.549,999.363,565,2009,16383,0
7236274,13.786,67.893,990.884,226,1113,16244,0
7236311,19.764,38.979,992.836,324,639,16276,0
7236352,24.766,12.322,977.403,406,202,16023,0
7236386,35.807,-12.993,964.288,587,-213,15808,0
7236423,29.402,-46.848,968.985,482,-768,15885,0
7236461,44.103,-74.908,961.055,723,-1228,15755,0
7236499,33.550,-111.508,977.830,550,-1828,16030,0
7236535,38.552,-116.449,934.398,632,-1909,15318,0
7236571,30.317,-139.507,986.736,497,-2287,16176,0
7236611,43.188,-145.363,963.800,708,-2383,15800,0
7236645,66.612,-154.391,980.636,1092,-2531,16076,0
7236683,64.782,-174.277,964.776,1062,-2857,15816,0
7236720,64.782,-164.334,962.885,1062,-2694,15785,0
7236757,68.442,-163.480,951.234,1122,-2680,15594,0
7236795,90.951,-174.277,950.746,1491,-2857,15586,0
7236832,88.206,-156.221,970.876,1446,-2561,15916,0
7236868,89.121,-177.449,996.984,1461,-2909,16344,0
7236906,114.863,-180.560,1009.611,1883,-2960,16551,0
7236943,81.313,-204.106,1029.253,1333,-3346,16873,0
7236980,70.760,-204.106,1017.541,1160,-3346,16681,0
7237017,37.210,-194.590,1038.586,610,-3190,17026,0
7237054,40.382,-186.904,1044.625,662,-3064,17125,0
7237092,4.575,-200.019,1092.754,75,-3279,17914,0
7237129,34.404,-192.821,1098.854,564,-3161,18014,0
7237166,20.191,-192.394,1098.366,331,-3154,18006,0
7237203,28.487,-157.990,1087.569,467,-2590,17829,0
7237240,21.167,-173.850,1129.598,347,-2850,18518,0
7237278,21.106,-145.302,1146.434,346,-2382,18794,0
7237317,19.764,-121.878,1157.658,324,-1998,18978,0
7237356,16.531,-84.363,1164.673,271,-1383,19093,0
7237389,18.849,-66.307,1154.364,309,-1087,18924,0
7237426,-20.252,-37.393,1160.952,-332,-613,19032,0
7237467,9.150,1.464,1145.031,150,24,18771,0
7237501,-9.638,65.209,1157.170,-158,1069,18970,0
7237538,-18.361,71.492,1159.061,-301,1172,19001,0
7237574,-22.509,94.550,1149.728,-369,1550,18848,0
7237612,-44.591,113.948,1157.170,-731,1868,18970,0
7237649,-42.700,140.178,1155.828,-700,2298,18948,0
7237687,-62.952,139.690,1163.758,-1032,2290,19078,0
7237723,-62.952,160.552,1149.240,-1032,2632,18840,0
