# STEVAL-MKI168V1 (IIS2DH) 

time[us],acc_x[mg],acc_y[mg],acc_z[mg],acc_x[LSB],acc_y[LSB],acc_z[LSB],int_1,int_2
106085020,674.000,200.000,-611.000,674,200,-611,0,0
106085653,747.000,209.000,-621.000,747,209,-621,0,0
106086405,711.000,187.000,-639.000,711,187,-639,0,0
106087163,692.000,207.000,-597.000,692,207,-597,0,0
106087914,754.000,200.000,-645.000,754,200,-645,0,0
106088666,681.000,187.000,-630.000,681,187,-630,0,0
106089417,721.000,208.000,-609.000,721,208,-609,0,0
106090169,731.000,191.000,-649.000,731,191,-649,0,0
106090921,670.000,197.000,-611.000,670,197,-611,0,0
106091680,741.000,208.000,-633.000,741,208,-633,0,0
106092432,707.000,193.000,-652.000,707,193,-652,0,0
106093184,695.000,211.000,-609.000,695,211,-609,0,0
106093937,750.000,208.000,-648.000,750,208,-648,0,0
106094688,676.000,198.000,-632.000,676,198,-632,0,0
106095448,721.000,211.000,-609.000,721,211,-609,0,0
106096199,727.000,193.000,-650.000,727,193,-650,0,0
106096951,671.000,203.000,-614.000,671,203,-614,0,0
106097702,743.000,213.000,-639.000,743,213,-639,0,0
106098454,700.000,190.000,-653.000,700,190,-653,0,0
106099206,693.000,211.000,-616.000,693,211,-616,0,0
106099959,751.000,204.000,-652.000,751,204,-652,0,0
106100718,676.000,196.000,-625.000,676,196,-625,0,0
106101470,727.000,214.000,-607.000,727,214,-607,0,0
106102222,730.000,193.000,-651.000,730,193,-651,0,0
106102975,668.000,202.000,-612.000,668,202,-612,0,0
106103726,743.000,207.000,-629.000,743,207,-629,0,0
106104478,696.000,189.000,-643.000,696,189,-643,0,0
106105230,694.000,209.000,-598.000,694,209,-598,0,0
106105983,751.000,198.000,-647.000,751,198,-647,0,0
106106743,674.000,189.000,-621.000,674,189,-621,0,0
106107495,725.000,208.000,-605.000,725,208,-605,0,0
106108247,724.000,186.000,-644.000,724,186,-644,0,0
106109000,672.000,203.000,-604.000,672,203,-604,0,0
106109750,748.000,208.000,-620.000,748,208,-620,0,0
106110502,685.000,188.000,-630.000,685,188,-630,0,0
106111253,694.000,206.000,-594.000,694,206,-594,0,0
106112014,747.000,198.000,-634.000,747,198,-634,0,0
106112764,671.000,193.000,-607.000,671,193,-607,0,0
106113516,727.000,206.000,-605.000,727,206,-605,0,0
106114268,722.000,188.000,-642.000,722,188,-642,0,0
106115020,672.000,200.000,-600.000,672,200,-600,0,0
106115772,750.000,205.000,-625.000,750,205,-625,0,0
106116532,688.000,185.000,-624.000,688,185,-624,0,0
106117283,696.000,202.000,-596.000,696,202,-596,0,0
106118035,740.000,196.000,-637.000,740,196,-637,0,0
106118787,672.000,194.000,-605.000,672,194,-605,0,0
106119539,735.000,208.000,-612.000,735,208,-612,0,0
106120290,722.000,188.000,-640.000,722,188,-640,0,0
106121050,676.000,198.000,-599.000,676,198,-599,0,0
106121802,746.000,200.000,-631.000,746,200,-631,0,0
106122554,682.000,186.000,-628.000,682,186,-628,0,0
106123305,703.000,211.000,-604.000,703,211,-604,0,0
106124057,739.000,198.000,-653.000,739,198,-653,0,0
106124809,664.000,197.000,-619.000,664,197,-619,0,0
106125568,731.000,211.000,-618.000,731,211,-618,0,0
106126321,715.000,189.000,-650.000,715,189,-650,0,0
106127072,678.000,204.000,-608.000,678,204,-608,0,0
106127825,749.000,203.000,-638.000,749,203,-638,0,0
106128575,688.000,188.000,-640.000,688,188,-640,0,0
106129334,705.000,208.000,-616.000,705,208,-616,0,0
106130086,740.000,196.000,-655.000,740,196,-655,0,0
106130839,671.000,189.000,-622.000,671,189,-622,0,0
106131589,734.000,208.000,-625.000,734,208,-625,0,0
106132341,715.000,189.000,-655.000,715,189,-655,0,0
106133100,685.000,207.000,-614.000,685,207,-614,0,0
106133852,752.000,204.000,-642.000,752,204,-642,0,0
106134604,684.000,188.000,-635.000,684,188,-635,0,0
106135355,709.000,208.000,-606.000,709,208,-606,0,0
106136105,744.000,191.000,-648.000,744,191,-648,0,0
106136865,675.000,194.000,-611.000,675,194,-611,0,0
106137617,738.000,209.000,-623.000,738,209,-623,0,0
106138369,709.000,191.000,-646.000,709,191,-646,0,0
106139121,681.000,207.000,-596.000,681,207,-596,0,0
106139873,754.000,209.000,-635.000,754,209,-635,0,0
106140624,689.000,196.000,-625.000,689,196,-625,0,0
106141376,719.000,211.000,-606.000,719,211,-606,0,0
106142129,743.000,194.000,-649.000,743,194,-649,0,0
106142889,674.000,203.000,-615.000,674,203,-615,0,0
106143639,746.000,211.000,-624.000,746,211,-624,0,0
106144391,704.000,189.000,-647.000,704,189,-647,0,0
106145143,679.000,207.000,-604.000,679,207,-604,0,0
106145895,742.000,202.000,-643.000,742,202,-643,0,0
106146647,670.000,193.000,-627.000,670,193,-627,0,0
106147406,711.000,209.000,-599.000,711,209,-599,0,0
106148159,734.000,191.000,-640.000,734,191,-640,0,0
106148911,669.000,202.000,-608.000,669,202,-608,0,0
106149663,740.000,211.000,-627.000,740,211,-627,0,0
106150414,702.000,196.000,-638.000,702,196,-638,0,0
106151167,683.000,212.000,-598.000,683,212,-598,0,0
106151918,744.000,203.000,-640.000,744,203,-640,0,0
106152678,674.000,194.000,-628.000,674,194,-628,0,0
106153429,712.000,212.000,-609.000,712,212,-609,0,0
106154181,730.000,197.000,-649.000,730,197,-649,0,0
106154932,669.000,206.000,-610.000,669,206,-610,0,0
106155683,746.000,220.000,-623.000,746,220,-623,0,0
106156443,703.000,197.000,-642.000,703,197,-642,0,0
106157195,691.000,217.000,-601.000,691,217,-601,0,0
106157947,747.000,208.000,-635.000,747,208,-635,0,0
106158698,676.000,192.000,-618.000,676,192,-618,0,0
106159451,724.000,216.000,-606.000,724,216,-606,0,0
106160202,731.000,199.000,-644.000,731,199,-644,0,0
106160962,672.000,205.000,-603.000,672,205,-603,0,0
106161714,744.000,211.000,-623.000,744,211,-623,0,0
106162464,699.000,191.000,-639.000,699,191,-639,0,0
106163224,693.000,207.000,-597.000,693,207,-597,0,0
106163976,748.000,200.000,-632.000,748,200,-632,0,0
106164728,676.000,199.000,-618.000,676,199,-618,0,0
106165480,727.000,212.000,-602.000,727,212,-602,0,0
106166232,730.000,191.000,-648.000,730,191,-648,0,0
106166992,676.000,200.000,-606.000,676,200,-606,0,0
106167744,751.000,212.000,-622.000,751,212,-622,0,0
106168496,694.000,191.000,-638.000,694,191,-638,0,0
106169248,694.000,211.000,-601.000,694,211,-601,0,0
106170001,746.000,201.000,-636.000,746,201,-636,0,0
106170753,675.000,201.000,-607.000,675,201,-607,0,0
106171505,730.000,215.000,-600.000,730,215,-600,0,0
106172265,721.000,192.000,-640.000,721,192,-640,0,0
106173017,669.000,204.000,-603.000,669,204,-603,0,0
106173769,742.000,204.000,-629.000,742,204,-629,0,0
106174521,687.000,190.000,-631.000,687,190,-631,0,0
106175273,698.000,212.000,-592.000,698,212,-592,0,0
106176025,745.000,194.000,-643.000,745,194,-643,0,0
106176777,674.000,192.000,-620.000,674,192,-620,0,0
106177529,730.000,207.000,-615.000,730,207,-615,0,0
106178288,718.000,191.000,-652.000,718,191,-652,0,0
106179040,672.000,203.000,-609.000,672,203,-609,0,0
106179792,747.000,205.000,-624.000,747,205,-624,0,0
106180544,690.000,189.000,-635.000,690,189,-635,0,0
106181296,705.000,211.000,-605.000,705,211,-605,0,0
106182056,747.000,197.000,-644.000,747,197,-644,0,0
106182808,677.000,193.000,-605.000,677,193,-605,0,0
106183560,730.000,211.000,-611.000,730,211,-611,0,0
106184312,715.000,191.000,-638.000,715,191,-638,0,0
106185064,673.000,203.000,-599.000,673,203,-599,0,0
106185817,750.000,201.000,-629.000,750,201,-629,0,0
106186575,685.000,188.000,-633.000,685,188,-633,0,0
106187327,704.000,211.000,-608.000,704,211,-608,0,0
106188080,743.000,200.000,-657.000,743,200,-657,0,0
106188831,667.000,202.000,-615.000,667,202,-615,0,0
106189582,735.000,214.000,-610.000,735,214,-610,0,0
106190334,713.000,189.000,-640.000,713,189,-640,0,0
106191086,678.000,205.000,-597.000,678,205,-597,0,0
106191847,751.000,205.000,-627.000,751,205,-627,0,0
106192597,684.000,190.000,-624.000,684,190,-624,0,0
106193347,708.000,208.000,-601.000,708,208,-601,0,0
106194100,744.000,196.000,-648.000,744,196,-648,0,0
106194859,674.000,198.000,-614.000,674,198,-614,0,0
106195610,740.000,213.000,-626.000,740,213,-626,0,0
106196362,708.000,192.000,-649.000,708,192,-649,0,0
106197114,683.000,203.000,-602.000,683,203,-602,0,0
106197865,753.000,201.000,-641.000,753,201,-641,0,0
106198616,680.000,190.000,-635.000,680,190,-635,0,0
106199376,712.000,209.000,-613.000,712,209,-613,0,0
106200128,737.000,197.000,-651.000,737,197,-651,0,0
106200881,671.000,199.000,-619.000,671,199,-619,0,0
106201633,743.000,209.000,-632.000,743,209,-632,0,0
106202385,707.000,185.000,-644.000,707,185,-644,0,0
106203137,684.000,202.000,-602.000,684,202,-602,0,0
106203889,750.000,200.000,-643.000,750,200,-643,0,0
106204639,680.000,187.000,-625.000,680,187,-625,0,0
106205398,719.000,207.000,-601.000,719,207,-601,0,0
106206151,740.000,192.000,-648.000,740,192,-648,0,0
106206903,671.000,195.000,-613.000,671,195,-613,0,0
106207655,744.000,208.000,-621.000,744,208,-621,0,0
106208406,702.000,190.000,-643.000,702,190,-643,0,0
106209159,681.000,202.000,-601.000,681,202,-601,0,0
106209911,745.000,195.000,-643.000,745,195,-643,0,0
106210671,675.000,190.000,-634.000,675,190,-634,0,0
106211423,715.000,211.000,-611.000,715,211,-611,0,0
106212175,735.000,194.000,-649.000,735,194,-649,0,0
106212926,674.000,199.000,-618.000,674,199,-618,0,0
106213678,742.000,208.000,-632.000,742,208,-632,0,0
106214430,699.000,189.000,-650.000,699,189,-650,0,0
106215190,684.000,206.000,-603.000,684,206,-603,0,0
106215942,751.000,198.000,-644.000,751,198,-644,0,0
106216692,677.000,185.000,-629.000,677,185,-629,0,0
106217445,721.000,206.000,-611.000,721,206,-611,0,0
106218197,733.000,189.000,-651.000,733,189,-651,0,0
106218956,672.000,199.000,-605.000,672,199,-605,0,0
106219707,742.000,211.000,-625.000,742,211,-625,0,0
106220459,700.000,192.000,-643.000,700,192,-643,0,0
106221211,696.000,206.000,-602.000,696,206,-602,0,0
106221963,754.000,200.000,-643.000,754,200,-643,0,0
106222722,678.000,191.000,-618.000,678,191,-618,0,0
106223474,726.000,214.000,-615.000,726,214,-615,0,0
106224226,731.000,193.000,-649.000,731,193,-649,0,0
106224978,672.000,203.000,-605.000,672,203,-605,0,0
106225730,745.000,208.000,-626.000,745,208,-626,0,0
106226489,696.000,191.000,-636.000,696,191,-636,0,0
106227241,696.000,208.000,-598.000,696,208,-598,0,0
106227993,752.000,197.000,-644.000,752,197,-644,0,0
106228745,676.000,196.000,-623.000,676,196,-623,0,0
106229497,723.000,214.000,-606.000,723,214,-606,0,0
106230256,723.000,189.000,-641.000,723,189,-641,0,0
106231008,670.000,202.000,-599.000,670,202,-599,0,0
106231760,743.000,209.000,-626.000,743,209,-626,0,0
106232512,690.000,189.000,-638.000,690,189,-638,0,0
106233263,694.000,213.000,-604.000,694,213,-604,0,0
106234022,738.000,203.000,-657.000,738,203,-657,0,0
106234772,667.000,194.000,-628.000,667,194,-628,0,0
106235524,729.000,208.000,-615.000,729,208,-615,0,0
106236276,722.000,193.000,-641.000,722,193,-641,0,0
106237029,674.000,203.000,-600.000,674,203,-600,0,0
106237780,750.000,207.000,-630.000,750,207,-630,0,0
106238540,695.000,192.000,-636.000,695,192,-636,0,0
106239292,700.000,215.000,-605.000,700,215,-605,0,0
106240045,742.000,200.000,-638.000,742,200,-638,0,0
106240797,669.000,197.000,-615.000,669,197,-615,0,0
106241547,734.000,214.000,-614.000,734,214,-614,0,0
106242306,719.000,192.000,-651.000,719,192,-651,0,0
106243058,675.000,206.000,-605.000,675,206,-605,0,0
106243810,747.000,206.000,-630.000,747,206,-630,0,0
106244561,688.000,196.000,-629.000,688,196,-629,0,0
106245313,703.000,216.000,-595.000,703,216,-595,0,0
106246065,739.000,201.000,-638.000,739,201,-638,0,0
106246825,674.000,201.000,-610.000,674,201,-610,0,0
106247575,736.000,215.000,-613.000,736,215,-613,0,0
106248326,719.000,195.000,-643.000,719,195,-643,0,0
106249085,678.000,212.000,-601.000,678,212,-601,0,0
106249836,748.000,210.000,-636.000,748,210,-636,0,0
106250587,681.000,194.000,-633.000,681,194,-633,0,0
106251339,703.000,216.000,-606.000,703,216,-606,0,0
106252098,740.000,198.000,-646.000,740,198,-646,0,0
106252850,669.000,204.000,-618.000,669,204,-618,0,0
106253600,740.000,215.000,-619.000,740,215,-619,0,0
106254352,712.000,198.000,-640.000,712,198,-640,0,0
106255113,678.000,210.000,-599.000,678,210,-599,0,0
106255865,746.000,206.000,-637.000,746,206,-637,0,0
106256617,681.000,193.000,-633.000,681,193,-633,0,0
106257369,713.000,218.000,-604.000,713,218,-604,0,0
106258121,739.000,200.000,-643.000,739,200,-643,0,0
106258873,672.000,204.000,-606.000,672,204,-606,0,0
106259633,740.000,215.000,-624.000,740,215,-624,0,0
106260385,706.000,195.000,-645.000,706,195,-645,0,0
106261137,682.000,215.000,-591.000,682,215,-591,0,0
106261889,745.000,208.000,-633.000,745,208,-633,0,0
106262639,677.000,198.000,-624.000,677,198,-624,0,0
106263392,708.000,218.000,-607.000,708,218,-607,0,0
106264151,731.000,201.000,-647.000,731,201,-647,0,0
106264904,668.000,207.000,-606.000,668,207,-606,0,0
106265655,739.000,216.000,-620.000,739,216,-620,0,0
106266407,701.000,193.000,-639.000,701,193,-639,0,0
106267159,683.000,212.000,-599.000,683,212,-599,0,0
106267911,747.000,205.000,-635.000,747,205,-635,0,0
106268671,675.000,195.000,-615.000,675,195,-615,0,0
106269423,717.000,218.000,-605.000,717,218,-605,0,0
106270175,734.000,198.000,-643.000,734,198,-643,0,0
106270926,672.000,203.000,-600.000,672,203,-600,0,0
106271678,745.000,215.000,-621.000,745,215,-621,0,0
106272438,699.000,192.000,-634.000,699,192,-634,0,0
106273189,689.000,212.000,-608.000,689,212,-608,0,0
106273940,748.000,209.000,-642.000,748,209,-642,0,0
106274692,669.000,202.000,-622.000,669,202,-622,0,0
106275444,710.000,215.000,-606.000,710,215,-606,0,0
106276202,724.000,195.000,-645.000,724,195,-645,0,0
106276954,668.000,203.000,-606.000,668,203,-606,0,0
106277705,747.000,213.000,-628.000,747,213,-628,0,0
106278457,694.000,194.000,-639.000,694,194,-639,0,0
106279217,691.000,211.000,-604.000,691,211,-604,0,0
106279968,752.000,206.000,-641.000,752,206,-641,0,0
106280720,672.000,192.000,-617.000,672,192,-617,0,0
106281472,719.000,212.000,-602.000,719,212,-602,0,0
106282224,726.000,194.000,-646.000,726,194,-646,0,0
106282976,666.000,202.000,-596.000,666,202,-596,0,0
106283736,741.000,209.000,-615.000,741,209,-615,0,0
106284488,694.000,190.000,-636.000,694,190,-636,0,0
106285241,693.000,209.000,-596.000,693,209,-596,0,0
106285993,749.000,195.000,-641.000,749,195,-641,0,0
106286745,674.000,193.000,-617.000,674,193,-617,0,0
106287497,727.000,213.000,-614.000,727,213,-614,0,0
106288257,724.000,195.000,-647.000,724,195,-647,0,0
106289009,672.000,205.000,-609.000,672,205,-609,0,0
106289761,748.000,208.000,-633.000,748,208,-633,0,0
106290513,693.000,188.000,-636.000,693,188,-636,0,0
106291272,700.000,209.000,-598.000,700,209,-598,0,0
106292023,742.000,198.000,-649.000,742,198,-649,0,0
106292775,670.000,192.000,-622.000,670,192,-622,0,0
106293527,730.000,212.000,-614.000,730,212,-614,0,0
106294279,719.000,191.000,-646.000,719,191,-646,0,0
106295039,678.000,205.000,-601.000,678,205,-601,0,0
106295790,752.000,208.000,-635.000,752,208,-635,0,0
106296542,694.000,191.000,-635.000,694,191,-635,0,0
106297294,707.000,211.000,-597.000,707,211,-597,0,0
106298053,750.000,198.000,-645.000,750,198,-645,0,0
106298805,675.000,199.000,-623.000,675,199,-623,0,0
106299556,738.000,214.000,-623.000,738,214,-623,0,0
106300307,720.000,192.000,-649.000,720,192,-649,0,0
106301059,682.000,200.000,-605.000,682,200,-605,0,0
106301811,752.000,199.000,-637.000,752,199,-637,0,0
106302570,689.000,189.000,-634.000,689,189,-634,0,0
106303323,706.000,207.000,-605.000,706,207,-605,0,0
106304074,741.000,196.000,-646.000,741,196,-646,0,0
106304826,669.000,195.000,-611.000,669,195,-611,0,0
106305577,737.000,211.000,-617.000,737,211,-617,0,0
106306328,713.000,191.000,-653.000,713,191,-653,0,0
106307080,679.000,202.000,-615.000,679,202,-615,0,0
106307840,749.000,202.000,-637.000,749,202,-637,0,0
106308591,685.000,186.000,-626.000,685,186,-626,0,0
106309344,704.000,201.000,-600.000,704,201,-600,0,0
106310096,741.000,190.000,-645.000,741,190,-645,0,0
106310848,672.000,197.000,-621.000,672,197,-621,0,0
106311600,739.000,210.000,-623.000,739,210,-623,0,0
106312352,715.000,192.000,-644.000,715,192,-644,0,0
106313105,689.000,205.000,-603.000,689,205,-603,0,0
106313856,753.000,201.000,-637.000,753,201,-637,0,0
106314616,679.000,190.000,-636.000,679,190,-636,0,0
106315368,712.000,207.000,-607.000,712,207,-607,0,0
106316121,741.000,192.000,-647.000,741,192,-647,0,0
106316873,673.000,192.000,-614.000,673,192,-614,0,0
106317625,741.000,209.000,-624.000,741,209,-624,0,0
106318377,707.000,190.000,-647.000,707,190,-647,0,0
106319129,682.000,206.000,-604.000,682,206,-604,0,0
106319881,749.000,202.000,-638.000,749,202,-638,0,0
106320633,681.000,189.000,-629.000,681,189,-629,0,0
106321385,717.000,209.000,-603.000,717,209,-603,0,0
106322146,740.000,193.000,-649.000,740,193,-649,0,0
106322898,670.000,196.000,-615.000,670,196,-615,0,0
106323648,739.000,203.000,-623.000,739,203,-623,0,0
106324399,706.000,187.000,-642.000,706,187,-642,0,0
106325151,687.000,208.000,-603.000,687,208,-603,0,0
106325904,755.000,202.000,-637.000,755,202,-637,0,0
106326663,682.000,191.000,-623.000,682,191,-623,0,0
106327414,717.000,214.000,-606.000,717,214,-606,0,0
106328165,736.000,196.000,-647.000,736,196,-647,0,0
106328917,670.000,202.000,-609.000,670,202,-609,0,0
106329676,741.000,209.000,-620.000,741,209,-620,0,0
106330428,700.000,188.000,-642.000,700,188,-642,0,0
106331180,687.000,206.000,-601.000,687,206,-601,0,0
106331930,746.000,200.000,-643.000,746,200,-643,0,0
106332689,675.000,191.000,-626.000,675,191,-626,0,0
106333441,719.000,210.000,-611.000,719,210,-611,0,0
106334193,729.000,195.000,-646.000,729,195,-646,0,0
106334945,672.000,199.000,-606.000,672,199,-606,0,0
106335705,745.000,203.000,-627.000,745,203,-627,0,0
106336457,698.000,188.000,-649.000,698,188,-649,0,0
106337209,687.000,209.000,-604.000,687,209,-604,0,0
106337961,744.000,205.000,-646.000,744,205,-646,0,0
106338713,671.000,197.000,-628.000,671,197,-628,0,0
106339465,719.000,215.000,-608.000,719,215,-608,0,0
106340217,730.000,192.000,-652.000,730,192,-652,0,0
106340977,674.000,203.000,-611.000,674,203,-611,0,0
106341728,744.000,208.000,-629.000,744,208,-629,0,0
106342481,694.000,188.000,-636.000,694,188,-636,0,0
106343233,693.000,207.000,-597.000,693,207,-597,0,0
106343985,746.000,199.000,-641.000,746,199,-641,0,0
106344737,673.000,193.000,-618.000,673,193,-618,0,0
106345489,725.000,214.000,-612.000,725,214,-612,0,0
106346247,723.000,197.000,-653.000,723,197,-653,0,0
106346998,668.000,208.000,-600.000,668,208,-600,0,0
106347748,745.000,215.000,-626.000,745,215,-626,0,0
106348500,694.000,195.000,-631.000,694,195,-631,0,0
106349260,698.000,212.000,-598.000,698,212,-598,0,0
106350012,752.000,203.000,-643.000,752,203,-643,0,0
106350763,676.000,196.000,-619.000,676,196,-619,0,0
106351515,732.000,213.000,-617.000,732,213,-617,0,0
106352267,723.000,194.000,-648.000,723,194,-648,0,0
106353026,674.000,206.000,-607.000,674,206,-607,0,0
106353778,747.000,209.000,-637.000,747,209,-637,0,0
106354529,688.000,195.000,-637.000,688,195,-637,0,0
106355280,697.000,216.000,-605.000,697,216,-605,0,0
106356031,741.000,205.000,-646.000,741,205,-646,0,0
106356792,668.000,203.000,-621.000,668,203,-621,0,0
106357543,729.000,216.000,-614.000,729,216,-614,0,0
106358294,714.000,194.000,-653.000,714,194,-653,0,0
106359046,671.000,207.000,-604.000,671,207,-604,0,0
106359798,744.000,209.000,-635.000,744,209,-635,0,0
106360550,683.000,195.000,-635.000,683,195,-635,0,0
106361309,697.000,217.000,-606.000,697,217,-606,0,0
106362061,738.000,207.000,-646.000,738,207,-646,0,0
106362813,666.000,207.000,-618.000,666,207,-618,0,0
106363565,730.000,217.000,-615.000,730,217,-615,0,0
106364324,709.000,194.000,-646.000,709,194,-646,0,0
106365076,672.000,204.000,-603.000,672,204,-603,0,0
106365828,744.000,205.000,-638.000,744,205,-638,0,0
106366580,677.000,191.000,-636.000,677,191,-636,0,0
106367332,698.000,211.000,-606.000,698,211,-606,0,0
106368084,740.000,198.000,-650.000,740,198,-650,0,0
106368844,665.000,205.000,-619.000,665,205,-619,0,0
106369596,730.000,215.000,-628.000,730,215,-628,0,0
106370347,711.000,191.000,-648.000,711,191,-648,0,0
106371098,677.000,209.000,-601.000,677,209,-601,0,0
106371850,750.000,209.000,-632.000,750,209,-632,0,0
106372609,677.000,196.000,-624.000,677,196,-624,0,0
106373361,707.000,218.000,-597.000,707,218,-597,0,0
106374113,739.000,199.000,-647.000,739,199,-647,0,0
106374865,667.000,201.000,-613.000,667,201,-613,0,0
106375617,737.000,217.000,-619.000,737,217,-619,0,0
106376369,708.000,200.000,-643.000,708,200,-643,0,0
106377122,679.000,214.000,-597.000,679,214,-597,0,0
106377881,747.000,211.000,-636.000,747,211,-636,0,0
106378633,679.000,199.000,-630.000,679,199,-630,0,0
106379385,705.000,219.000,-611.000,705,219,-611,0,0
106380137,732.000,200.000,-650.000,732,200,-650,0,0
106380890,663.000,201.000,-620.000,663,201,-620,0,0
106381648,738.000,210.000,-625.000,738,210,-625,0,0
106382400,705.000,190.000,-656.000,705,190,-656,0,0
106383151,681.000,210.000,-608.000,681,210,-608,0,0
106383904,745.000,206.000,-640.000,745,206,-640,0,0
106384656,675.000,193.000,-628.000,675,193,-628,0,0
106385407,713.000,213.000,-602.000,713,213,-602,0,0
106386167,737.000,198.000,-644.000,737,198,-644,0,0
106386918,670.000,204.000,-615.000,670,204,-615,0,0
106387670,740.000,212.000,-628.000,740,212,-628,0,0
106388423,702.000,195.000,-642.000,702,195,-642,0,0
106389173,689.000,211.000,-604.000,689,211,-604,0,0
106389925,751.000,206.000,-641.000,751,206,-641,0,0
106390684,678.000,195.000,-628.000,678,195,-628,0,0
106391436,716.000,214.000,-614.000,716,214,-614,0,0
106392187,735.000,199.000,-653.000,735,199,-653,0,0
106392938,676.000,200.000,-616.000,676,200,-616,0,0
106393697,745.000,210.000,-626.000,745,210,-626,0,0
106394449,697.000,188.000,-640.000,697,188,-640,0,0
106395201,691.000,209.000,-605.000,691,209,-605,0,0
106395953,748.000,200.000,-645.000,748,200,-645,0,0
106396705,667.000,194.000,-630.000,667,194,-630,0,0
106397457,717.000,210.000,-606.000,717,210,-606,0,0
106398217,724.000,191.000,-641.000,724,191,-641,0,0
106398969,671.000,200.000,-606.000,671,200,-606,0,0
106399720,743.000,207.000,-630.000,743,207,-630,0,0
106400473,690.000,191.000,-635.000,690,191,-635,0,0
106401225,690.000,210.000,-594.000,690,210,-594,0,0
106401977,742.000,200.000,-644.000,742,200,-644,0,0
106402728,669.000,194.000,-623.000,669,194,-623,0,0
106403481,725.000,210.000,-603.000,725,210,-603,0,0
106404241,727.000,192.000,-644.000,727,192,-644,0,0
106404993,671.000,202.000,-600.000,671,202,-600,0,0
106405745,742.000,210.000,-624.000,742,210,-624,0,0
106406497,693.000,189.000,-633.000,693,189,-633,0,0
106407249,696.000,211.000,-598.000,696,211,-598,0,0
106408002,747.000,203.000,-648.000,747,203,-648,0,0
106408753,677.000,197.000,-623.000,677,197,-623,0,0
106409505,730.000,212.000,-610.000,730,212,-610,0,0
106410264,722.000,194.000,-647.000,722,194,-647,0,0
106411016,675.000,201.000,-601.000,675,201,-601,0,0
106411767,746.000,207.000,-632.000,746,207,-632,0,0
106412518,690.000,189.000,-643.000,690,189,-643,0,0
106413270,700.000,206.000,-599.000,700,206,-599,0,0
106414030,748.000,198.000,-635.000,748,198,-635,0,0
106414781,671.000,196.000,-613.000,671,196,-613,0,0
106415531,729.000,209.000,-607.000,729,209,-607,0,0
106416283,719.000,188.000,-643.000,719,188,-643,0,0
106417042,677.000,198.000,-601.000,677,198,-601,0,0
106417793,749.000,201.000,-630.000,749,201,-630,0,0
106418545,690.000,182.000,-637.000,690,182,-637,0,0
106419297,703.000,205.000,-602.000,703,205,-602,0,0
106420048,745.000,196.000,-647.000,745,196,-647,0,0
106420801,668.000,196.000,-610.000,668,196,-610,0,0
106421559,730.000,212.000,-610.000,730,212,-610,0,0
106422310,713.000,189.000,-641.000,713,189,-641,0,0
106423062,674.000,205.000,-588.000,674,205,-588,0,0
106423814,744.000,204.000,-626.000,744,204,-626,0,0
106424573,684.000,183.000,-633.000,684,183,-633,0,0
106425324,703.000,204.000,-604.000,703,204,-604,0,0
106426076,741.000,195.000,-642.000,741,195,-642,0,0
106426829,674.000,195.000,-607.000,674,195,-607,0,0
106427580,736.000,208.000,-613.000,736,208,-613,0,0
106428340,717.000,187.000,-636.000,717,187,-636,0,0
106429090,682.000,201.000,-601.000,682,201,-601,0,0
106429842,753.000,201.000,-635.000,753,201,-635,0,0
106430593,686.000,189.000,-626.000,686,189,-626,0,0
106431345,709.000,207.000,-598.000,709,207,-598,0,0
106432105,743.000,193.000,-644.000,743,193,-644,0,0
106432857,673.000,195.000,-609.000,673,195,-609,0,0
106433608,739.000,208.000,-614.000,739,208,-614,0,0
106434360,715.000,189.000,-639.000,715,189,-639,0,0
106435113,684.000,203.000,-605.000,684,203,-605,0,0
106435865,752.000,206.000,-640.000,752,206,-640,0,0
106436623,682.000,192.000,-630.000,682,192,-630,0,0
106437375,712.000,214.000,-607.000,712,214,-607,0,0
106438126,743.000,197.000,-648.000,743,197,-648,0,0
106438878,674.000,199.000,-612.000,674,199,-612,0,0
106439629,741.000,215.000,-619.000,741,215,-619,0,0
106440382,707.000,185.000,-647.000,707,185,-647,0,0
106441142,687.000,204.000,-598.000,687,204,-598,0,0
106441893,755.000,202.000,-643.000,755,202,-643,0,0
106442645,678.000,192.000,-626.000,678,192,-626,0,0
106443396,714.000,213.000,-605.000,714,213,-605,0,0
106444148,731.000,195.000,-649.000,731,195,-649,0,0
106444906,668.000,201.000,-613.000,668,201,-613,0,0
106445656,742.000,210.000,-620.000,742,210,-620,0,0
106446409,703.000,191.000,-645.000,703,191,-645,0,0
106447161,685.000,207.000,-600.000,685,207,-600,0,0
106447911,752.000,201.000,-641.000,752,201,-641,0,0
106448670,674.000,190.000,-629.000,674,190,-629,0,0
106449422,718.000,210.000,-609.000,718,210,-609,0,0
106450173,738.000,195.000,-653.000,738,195,-653,0,0
106450925,673.000,200.000,-606.000,673,200,-606,0,0
106451676,745.000,204.000,-619.000,745,204,-619,0,0
106452428,704.000,186.000,-640.000,704,186,-640,0,0
106453188,687.000,204.000,-596.000,687,204,-596,0,0
106453940,752.000,201.000,-640.000,752,201,-640,0,0
106454690,676.000,193.000,-621.000,676,193,-621,0,0
106455441,717.000,215.000,-602.000,717,215,-602,0,0
106456193,727.000,199.000,-638.000,727,199,-638,0,0
106456946,661.000,201.000,-605.000,661,201,-605,0,0
106457697,739.000,212.000,-618.000,739,212,-618,0,0
106458457,699.000,191.000,-637.000,699,191,-637,0,0
106459209,691.000,208.000,-596.000,691,208,-596,0,0
106459962,746.000,203.000,-636.000,746,203,-636,0,0
106460713,669.000,193.000,-620.000,669,193,-620,0,0
106461465,723.000,211.000,-607.000,723,211,-607,0,0
106462217,726.000,197.000,-650.000,726,197,-650,0,0
106462969,670.000,209.000,-609.000,670,209,-609,0,0
106463729,741.000,213.000,-628.000,741,213,-628,0,0
106464481,696.000,198.000,-641.000,696,198,-641,0,0
106465233,687.000,215.000,-602.000,687,215,-602,0,0
106465985,742.000,205.000,-644.000,742,205,-644,0,0
106466737,671.000,205.000,-622.000,671,205,-622,0,0
106467489,723.000,220.000,-612.000,723,220,-612,0,0
106468249,719.000,197.000,-646.000,719,197,-646,0,0
106469001,669.000,208.000,-610.000,669,208,-610,0,0
106469753,743.000,207.000,-628.000,743,207,-628,0,0
106470505,690.000,192.000,-640.000,690,192,-640,0,0
106471257,698.000,215.000,-605.000,698,215,-605,0,0
106472010,749.000,206.000,-645.000,749,206,-645,0,0
106472761,671.000,199.000,-631.000,671,199,-631,0,0
106473521,728.000,212.000,-616.000,728,212,-616,0,0
106474274,717.000,196.000,-650.000,717,196,-650,0,0
106475026,669.000,207.000,-606.000,669,207,-606,0,0
106475778,743.000,209.000,-631.000,743,209,-631,0,0
106476529,688.000,194.000,-636.000,688,194,-636,0,0
106477281,699.000,214.000,-612.000,699,214,-612,0,0
106478040,745.000,204.000,-646.000,745,204,-646,0,0
106478791,670.000,197.000,-621.000,670,197,-621,0,0
106479543,729.000,215.000,-615.000,729,215,-615,0,0
106480294,717.000,194.000,-645.000,717,194,-645,0,0
106481045,675.000,206.000,-601.000,675,206,-601,0,0
106481805,756.000,206.000,-635.000,756,206,-635,0,0
106482556,685.000,189.000,-638.000,685,189,-638,0,0
106483308,702.000,211.000,-598.000,702,211,-598,0,0
106484059,739.000,198.000,-644.000,739,198,-644,0,0
106484811,663.000,195.000,-618.000,663,195,-618,0,0
106485570,730.000,214.000,-617.000,730,214,-617,0,0
106486322,711.000,190.000,-649.000,711,190,-649,0,0
106487074,677.000,205.000,-603.000,677,205,-603,0,0
106487826,752.000,206.000,-639.000,752,206,-639,0,0
106488576,685.000,194.000,-637.000,685,194,-637,0,0
106489337,701.000,217.000,-598.000,701,217,-598,0,0
106490089,736.000,203.000,-646.000,736,203,-646,0,0
106490841,666.000,200.000,-618.000,666,200,-618,0,0
106491593,731.000,211.000,-625.000,731,211,-625,0,0
106492343,712.000,191.000,-653.000,712,191,-653,0,0
106493096,677.000,208.000,-607.000,677,208,-607,0,0
106493848,753.000,210.000,-639.000,753,210,-639,0,0
106494606,684.000,196.000,-634.000,684,196,-634,0,0
106495356,708.000,214.000,-603.000,708,214,-603,0,0
106496107,740.000,199.000,-649.000,740,199,-649,0,0
106496866,669.000,202.000,-614.000,669,202,-614,0,0
106497617,734.000,215.000,-620.000,734,215,-620,0,0
106498370,706.000,197.000,-654.000,706,197,-654,0,0
106499122,677.000,211.000,-610.000,677,211,-610,0,0
106499874,749.000,206.000,-638.000,749,206,-638,0,0
106500625,673.000,192.000,-629.000,673,192,-629,0,0
106501385,710.000,211.000,-607.000,710,211,-607,0,0
106502138,735.000,192.000,-645.000,735,192,-645,0,0
106502890,666.000,196.000,-609.000,666,196,-609,0,0
106503640,738.000,212.000,-620.000,738,212,-620,0,0
106504392,706.000,188.000,-651.000,706,188,-651,0,0
106505144,687.000,206.000,-601.000,687,206,-601,0,0
106505904,749.000,205.000,-642.000,749,205,-642,0,0
106506656,677.000,193.000,-627.000,677,193,-627,0,0
106507407,713.000,211.000,-603.000,713,211,-603,0,0
106508160,738.000,194.000,-642.000,738,194,-642,0,0
106508912,668.000,203.000,-606.000,668,203,-606,0,0
106509664,742.000,212.000,-626.000,742,212,-626,0,0
106510423,702.000,194.000,-640.000,702,194,-640,0,0
106511176,686.000,212.000,-600.000,686,212,-600,0,0
106511927,749.000,203.000,-636.000,749,203,-636,0,0
106512679,673.000,194.000,-623.000,673,194,-623,0,0
106513430,720.000,214.000,-608.000,720,214,-608,0,0
106514182,733.000,192.000,-652.000,733,192,-652,0,0
106514942,674.000,199.000,-607.000,674,199,-607,0,0
106515693,747.000,207.000,-625.000,747,207,-625,0,0
106516444,704.000,185.000,-638.000,704,185,-638,0,0
106517196,689.000,206.000,-598.000,689,206,-598,0,0
106517955,748.000,198.000,-638.000,748,198,-638,0,0
106518706,673.000,190.000,-620.000,673,190,-620,0,0
106519457,722.000,208.000,-607.000,722,208,-607,0,0
106520209,729.000,191.000,-639.000,729,191,-639,0,0
106520968,675.000,197.000,-603.000,675,197,-603,0,0
106521720,749.000,202.000,-624.000,749,202,-624,0,0
106522472,694.000,185.000,-637.000,694,185,-637,0,0
106523224,694.000,208.000,-603.000,694,208,-603,0,0
106523976,745.000,200.000,-632.000,745,200,-632,0,0
106524728,673.000,191.000,-612.000,673,191,-612,0,0
106525488,726.000,208.000,-600.000,726,208,-600,0,0
106526241,722.000,192.000,-640.000,722,192,-640,0,0
106526993,667.000,202.000,-597.000,667,202,-597,0,0
106527745,745.000,205.000,-628.000,745,205,-628,0,0
106528497,695.000,190.000,-641.000,695,190,-641,0,0
106529249,700.000,209.000,-596.000,700,209,-596,0,0
106530008,748.000,199.000,-646.000,748,199,-646,0,0
106530759,671.000,190.000,-617.000,671,190,-617,0,0
106531510,727.000,206.000,-605.000,727,206,-605,0,0
106532270,722.000,186.000,-646.000,722,186,-646,0,0
106533021,674.000,196.000,-600.000,674,196,-600,0,0
106533773,746.000,200.000,-623.000,746,200,-623,0,0
106534525,688.000,184.000,-636.000,688,184,-636,0,0
106535277,695.000,207.000,-601.000,695,207,-601,0,0
106536029,741.000,200.000,-641.000,741,200,-641,0,0
106536789,671.000,195.000,-615.000,671,195,-615,0,0
106537541,738.000,211.000,-610.000,738,211,-610,0,0
106538291,724.000,190.000,-642.000,724,190,-642,0,0
106539043,679.000,205.000,-601.000,679,205,-601,0,0
106539803,753.000,203.000,-625.000,753,203,-625,0,0
106540554,687.000,191.000,-638.000,687,191,-638,0,0
106541306,706.000,208.000,-603.000,706,208,-603,0,0
106542059,752.000,197.000,-645.000,752,197,-645,0,0
106542810,673.000,193.000,-618.000,673,193,-618,0,0
106543561,735.000,210.000,-616.000,735,210,-616,0,0
106544322,718.000,191.000,-646.000,718,191,-646,0,0
106545074,678.000,206.000,-608.000,678,206,-608,0,0
106545826,750.000,204.000,-641.000,750,204,-641,0,0
106546576,683.000,189.000,-634.000,683,189,-634,0,0
106547329,704.000,209.000,-606.000,704,209,-606,0,0
106548081,745.000,195.000,-642.000,745,195,-642,0,0
106548840,673.000,196.000,-607.000,673,196,-607,0,0
106549590,731.000,212.000,-621.000,731,212,-621,0,0
106550340,704.000,193.000,-641.000,704,193,-641,0,0
106551099,673.000,204.000,-596.000,673,204,-596,0,0
106551850,747.000,204.000,-631.000,747,204,-631,0,0
106552601,681.000,190.000,-630.000,681,190,-630,0,0
106553361,708.000,212.000,-592.000,708,212,-592,0,0
106554112,738.000,195.000,-640.000,738,195,-640,0,0
106554864,670.000,194.000,-609.000,670,194,-609,0,0
106555615,733.000,209.000,-612.000,733,209,-612,0,0
106556367,710.000,188.000,-641.000,710,188,-641,0,0
106557126,682.000,206.000,-594.000,682,206,-594,0,0
106557877,752.000,198.000,-643.000,752,198,-643,0,0
106558629,681.000,188.000,-628.000,681,188,-628,0,0
106559380,713.000,209.000,-608.000,713,209,-608,0,0
106560131,740.000,193.000,-642.000,740,193,-642,0,0
106560890,672.000,198.000,-611.000,672,198,-611,0,0
106561640,739.000,211.000,-617.000,739,211,-617,0,0
106562393,705.000,191.000,-646.000,705,191,-646,0,0
106563144,685.000,209.000,-600.000,685,209,-600,0,0
106563897,750.000,203.000,-642.000,750,203,-642,0,0
106564656,682.000,191.000,-628.000,682,191,-628,0,0
106565409,719.000,215.000,-610.000,719,215,-610,0,0
106566160,736.000,197.000,-647.000,736,197,-647,0,0
106566912,673.000,199.000,-611.000,673,199,-611,0,0
106567664,744.000,211.000,-620.000,744,211,-620,0,0
106568415,701.000,192.000,-644.000,701,192,-644,0,0
106569176,687.000,209.000,-598.000,687,209,-598,0,0
106569928,748.000,205.000,-641.000,748,205,-641,0,0
106570680,674.000,196.000,-627.000,674,196,-627,0,0
106571432,722.000,214.000,-610.000,722,214,-610,0,0
106572184,737.000,196.000,-650.000,737,196,-650,0,0
106572943,679.000,200.000,-610.000,679,200,-610,0,0
106573695,746.000,212.000,-628.000,746,212,-628,0,0
106574447,696.000,191.000,-648.000,696,191,-648,0,0
106575198,695.000,213.000,-602.000,695,213,-602,0,0
106575949,753.000,206.000,-646.000,753,206,-646,0,0
106576709,681.000,197.000,-627.000,681,197,-627,0,0
106577461,720.000,213.000,-611.000,720,213,-611,0,0
106578212,730.000,190.000,-649.000,730,190,-649,0,0
106578964,666.000,199.000,-608.000,666,199,-608,0,0
106579723,749.000,206.000,-621.000,749,206,-621,0,0
106580476,699.000,191.000,-641.000,699,191,-641,0,0
106581227,694.000,207.000,-598.000,694,207,-598,0,0
106581979,748.000,205.000,-641.000,748,205,-641,0,0
106582738,672.000,198.000,-614.000,672,198,-614,0,0
106583489,726.000,210.000,-602.000,726,210,-602,0,0
106584241,727.000,194.000,-644.000,727,194,-644,0,0
106584994,677.000,205.000,-597.000,677,205,-597,0,0
106585745,751.000,208.000,-617.000,751,208,-617,0,0
106586497,693.000,188.000,-636.000,693,188,-636,0,0
106587258,695.000,212.000,-608.000,695,212,-608,0,0
106588010,748.000,201.000,-645.000,748,201,-645,0,0
106588762,674.000,196.000,-616.000,674,196,-616,0,0
106589514,726.000,213.000,-609.000,726,213,-609,0,0
106590266,721.000,193.000,-650.000,721,193,-650,0,0
106591018,670.000,201.000,-602.000,670,201,-602,0,0
106591770,742.000,205.000,-625.000,742,205,-625,0,0
106592521,687.000,191.000,-635.000,687,191,-635,0,0
106593281,702.000,216.000,-603.000,702,216,-603,0,0
106594032,744.000,203.000,-641.000,744,203,-641,0,0
106594785,670.000,197.000,-618.000,670,197,-618,0,0
106595537,725.000,210.000,-612.000,725,210,-612,0,0
106596289,708.000,184.000,-644.000,708,184,-644,0,0
106597041,659.000,197.000,-596.000,659,197,-596,0,0
106597802,737.000,202.000,-627.000,737,202,-627,0,0
106598553,689.000,198.000,-633.000,689,198,-633,0,0
106599305,713.000,221.000,-608.000,713,221,-608,0,0
106600057,751.000,207.000,-656.000,751,207,-656,0,0
106600810,662.000,207.000,-624.000,662,207,-624,0,0
106601561,716.000,217.000,-616.000,716,217,-616,0,0
106602321,698.000,195.000,-643.000,698,195,-643,0,0
106603074,662.000,203.000,-595.000,662,203,-595,0,0
106603824,752.000,208.000,-633.000,752,208,-633,0,0
106604576,694.000,196.000,-646.000,694,196,-646,0,0
106605336,715.000,220.000,-621.000,715,220,-621,0,0
106606088,752.000,207.000,-669.000,752,207,-669,0,0
106606840,675.000,208.000,-629.000,675,208,-629,0,0
106607591,740.000,216.000,-619.000,740,216,-619,0,0
106608343,707.000,190.000,-631.000,707,190,-631,0,0
106609094,664.000,202.000,-581.000,664,202,-581,0,0
106609854,744.000,196.000,-617.000,744,196,-617,0,0
106610605,689.000,188.000,-621.000,689,188,-621,0,0
106611357,729.000,215.000,-605.000,729,215,-605,0,0
106612109,760.000,200.000,-651.000,760,200,-651,0,0
106612860,681.000,203.000,-623.000,681,203,-623,0,0
106613612,738.000,213.000,-628.000,738,213,-628,0,0
106614363,701.000,188.000,-643.000,701,188,-643,0,0
106615123,665.000,198.000,-592.000,665,198,-592,0,0
106615874,736.000,197.000,-627.000,736,197,-627,0,0
106616626,673.000,187.000,-617.000,673,187,-617,0,0
106617378,714.000,211.000,-596.000,714,211,-596,0,0
106618129,748.000,200.000,-651.000,748,200,-651,0,0
106618882,682.000,202.000,-616.000,682,202,-616,0,0
106619640,743.000,215.000,-628.000,743,215,-628,0,0
106620390,708.000,189.000,-652.000,708,189,-652,0,0
106621141,673.000,204.000,-602.000,673,204,-602,0,0
106621893,734.000,198.000,-629.000,734,198,-629,0,0
106622652,666.000,188.000,-620.000,666,188,-620,0,0
106623404,707.000,208.000,-598.000,707,208,-598,0,0
106624156,738.000,194.000,-637.000,738,194,-637,0,0
106624907,675.000,204.000,-608.000,675,204,-608,0,0
106625665,753.000,216.000,-625.000,753,216,-625,0,0
106626417,711.000,195.000,-644.000,711,195,-644,0,0
106627169,686.000,213.000,-607.000,686,213,-607,0,0
106627921,744.000,203.000,-633.000,744,203,-633,0,0
106628681,668.000,195.000,-618.000,668,195,-618,0,0
106629433,713.000,217.000,-603.000,713,217,-603,0,0
106630184,734.000,198.000,-647.000,734,198,-647,0,0
106630935,674.000,208.000,-613.000,674,208,-613,0,0
106631687,745.000,215.000,-626.000,745,215,-626,0,0
106632447,702.000,195.000,-642.000,702,195,-642,0,0
106633199,686.000,213.000,-598.000,686,213,-598,0,0
106633950,749.000,207.000,-636.000,749,207,-636,0,0
106634702,671.000,195.000,-624.000,671,195,-624,0,0
106635453,712.000,215.000,-613.000,712,215,-613,0,0
106636212,720.000,197.000,-641.000,720,197,-641,0,0
106636964,668.000,203.000,-594.000,668,203,-594,0,0
106637716,748.000,214.000,-620.000,748,214,-620,0,0
106638468,700.000,192.000,-641.000,700,192,-641,0,0
106639220,691.000,210.000,-609.000,691,210,-609,0,0
106639979,744.000,202.000,-645.000,744,202,-645,0,0
106640731,670.000,192.000,-629.000,670,192,-629,0,0
106641482,719.000,211.000,-608.000,719,211,-608,0,0
106642233,722.000,190.000,-646.000,722,190,-646,0,0
106642994,673.000,196.000,-599.000,673,196,-599,0,0
106643745,746.000,204.000,-625.000,746,204,-625,0,0
106644497,698.000,188.000,-637.000,698,188,-637,0,0
106645249,702.000,208.000,-601.000,702,208,-601,0,0
106646002,750.000,199.000,-643.000,750,199,-643,0,0
106646754,673.000,189.000,-617.000,673,189,-617,0,0
106647514,724.000,209.000,-605.000,724,209,-605,0,0
106648265,719.000,192.000,-644.000,719,192,-644,0,0
106649018,672.000,201.000,-601.000,672,201,-601,0,0
106649770,750.000,207.000,-627.000,750,207,-627,0,0
106650521,690.000,189.000,-631.000,690,189,-631,0,0
106651281,703.000,212.000,-596.000,703,212,-596,0,0
106652033,744.000,200.000,-639.000,744,200,-639,0,0
106652785,676.000,192.000,-615.000,676,192,-615,0,0
106653537,733.000,209.000,-609.000,733,209,-609,0,0
106654289,720.000,187.000,-647.000,720,187,-647,0,0
106655041,669.000,204.000,-605.000,669,204,-605,0,0
106655794,745.000,206.000,-628.000,745,206,-628,0,0
106656553,692.000,191.000,-633.000,692,191,-633,0,0
106657305,703.000,207.000,-607.000,703,207,-607,0,0
106658057,745.000,191.000,-654.000,745,191,-654,0,0
106658810,672.000,193.000,-627.000,672,193,-627,0,0
106659561,731.000,213.000,-622.000,731,213,-622,0,0
106660321,714.000,193.000,-660.000,714,193,-660,0,0
106661074,679.000,207.000,-612.000,679,207,-612,0,0
106661824,745.000,205.000,-638.000,745,205,-638,0,0
106662576,688.000,193.000,-630.000,688,193,-630,0,0
106663328,704.000,212.000,-603.000,704,212,-603,0,0
106664088,743.000,195.000,-646.000,743,195,-646,0,0
106664841,673.000,197.000,-612.000,673,197,-612,0,0
106665592,736.000,212.000,-615.000,736,212,-615,0,0
106666344,714.000,191.000,-641.000,714,191,-641,0,0
106667097,677.000,205.000,-599.000,677,205,-599,0,0
106667849,746.000,205.000,-634.000,746,205,-634,0,0
106668601,682.000,193.000,-622.000,682,193,-622,0,0
106669361,711.000,214.000,-598.000,711,214,-598,0,0
106670113,741.000,198.000,-644.000,741,198,-644,0,0
106670866,672.000,199.000,-610.000,672,199,-610,0,0
106671616,738.000,212.000,-620.000,738,212,-620,0,0
106672375,712.000,190.000,-638.000,712,190,-638,0,0
106673127,681.000,205.000,-597.000,681,205,-597,0,0
106673878,755.000,203.000,-631.000,755,203,-631,0,0
106674630,681.000,192.000,-621.000,681,192,-621,0,0
106675383,715.000,214.000,-600.000,715,214,-600,0,0
106676134,739.000,195.000,-646.000,739,195,-646,0,0
106676894,674.000,193.000,-613.000,674,193,-613,0,0
106677644,744.000,206.000,-617.000,744,206,-617,0,0
106678396,715.000,188.000,-644.000,715,188,-644,0,0
106679156,690.000,203.000,-600.000,690,203,-600,0,0
106679907,749.000,195.000,-641.000,749,195,-641,0,0
106680657,680.000,190.000,-628.000,680,190,-628,0,0
106681409,716.000,211.000,-608.000,716,211,-608,0,0
106682169,732.000,193.000,-651.000,732,193,-651,0,0
106682922,669.000,197.000,-613.000,669,197,-613,0,0
106683673,743.000,212.000,-622.000,743,212,-622,0,0
106684425,703.000,188.000,-638.000,703,188,-638,0,0
106685177,693.000,206.000,-599.000,693,206,-599,0,0
106685930,753.000,197.000,-636.000,753,197,-636,0,0
106686689,679.000,188.000,-622.000,679,188,-622,0,0
106687441,725.000,211.000,-604.000,725,211,-604,0,0
106688192,736.000,193.000,-647.000,736,193,-647,0,0
106688945,671.000,200.000,-608.000,671,200,-608,0,0
106689696,744.000,205.000,-619.000,744,205,-619,0,0
106690456,700.000,186.000,-639.000,700,186,-639,0,0
106691207,693.000,204.000,-602.000,693,204,-602,0,0
106691960,749.000,198.000,-639.000,749,198,-639,0,0
106692712,672.000,197.000,-622.000,672,197,-622,0,0
106693463,720.000,217.000,-610.000,720,217,-610,0,0
106694215,723.000,195.000,-651.000,723,195,-651,0,0
106694974,667.000,204.000,-611.000,667,204,-611,0,0
106695725,745.000,205.000,-633.000,745,205,-633,0,0
106696477,695.000,187.000,-647.000,695,187,-647,0,0
106697230,696.000,210.000,-607.000,696,210,-607,0,0
106697982,747.000,205.000,-641.000,747,205,-641,0,0
106698740,669.000,193.000,-616.000,669,193,-616,0,0
106699492,724.000,211.000,-605.000,724,211,-605,0,0
106700244,721.000,191.000,-640.000,721,191,-640,0,0
106700995,670.000,200.000,-603.000,670,200,-603,0,0
106701755,746.000,208.000,-626.000,746,208,-626,0,0
106702506,690.000,193.000,-641.000,690,193,-641,0,0
106703258,695.000,211.000,-601.000,695,211,-601,0,0
106704011,741.000,201.000,-648.000,741,201,-648,0,0
106704762,666.000,193.000,-625.000,666,193,-625,0,0
106705522,724.000,212.000,-610.000,724,212,-610,0,0
106706274,723.000,190.000,-645.000,723,190,-645,0,0
106707027,672.000,200.000,-605.000,672,200,-605,0,0
106707778,746.000,203.000,-634.000,746,203,-634,0,0
106708530,689.000,191.000,-635.000,689,191,-635,0,0
106709281,696.000,212.000,-598.000,696,212,-598,0,0
106710041,741.000,203.000,-648.000,741,203,-648,0,0
106710792,670.000,197.000,-622.000,670,197,-622,0,0
106711543,730.000,213.000,-624.000,730,213,-624,0,0
106712295,719.000,190.000,-654.000,719,190,-654,0,0
106713055,677.000,205.000,-610.000,677,205,-610,0,0
106713807,745.000,209.000,-634.000,745,209,-634,0,0
106714559,682.000,195.000,-634.000,682,195,-634,0,0
106715311,700.000,213.000,-598.000,700,213,-598,0,0
106716063,740.000,200.000,-643.000,740,200,-643,0,0
106716815,668.000,196.000,-609.000,668,196,-609,0,0
106717574,731.000,211.000,-617.000,731,211,-617,0,0
106718326,714.000,196.000,-640.000,714,196,-640,0,0
106719078,677.000,209.000,-601.000,677,209,-601,0,0
106719830,749.000,212.000,-629.000,749,212,-629,0,0
106720581,683.000,197.000,-629.000,683,197,-629,0,0
106721341,704.000,217.000,-602.000,704,217,-602,0,0
106722093,739.000,201.000,-653.000,739,201,-653,0,0
106722845,670.000,200.000,-619.000,670,200,-619,0,0
106723596,738.000,211.000,-622.000,738,211,-622,0,0
106724348,714.000,195.000,-654.000,714,195,-654,0,0
106725099,677.000,207.000,-605.000,677,207,-605,0,0
106725859,744.000,208.000,-636.000,744,208,-636,0,0
106726610,675.000,193.000,-627.000,675,193,-627,0,0
106727362,704.000,207.000,-601.000,704,207,-601,0,0
106728114,730.000,191.000,-646.000,730,191,-646,0,0
106728867,660.000,196.000,-619.000,660,196,-619,0,0
106729626,732.000,207.000,-620.000,732,207,-620,0,0
106730378,705.000,195.000,-652.000,705,195,-652,0,0
106731131,679.000,213.000,-606.000,679,213,-606,0,0
106731883,749.000,206.000,-640.000,749,206,-640,0,0
106732634,678.000,195.000,-631.000,678,195,-631,0,0
106733385,711.000,213.000,-607.000,711,213,-607,0,0
106734138,735.000,200.000,-653.000,735,200,-653,0,0
106734898,666.000,203.000,-614.000,666,203,-614,0,0
106735649,738.000,214.000,-623.000,738,214,-623,0,0
106736401,708.000,194.000,-635.000,708,194,-635,0,0
106737152,686.000,210.000,-609.000,686,210,-609,0,0
106737905,745.000,206.000,-644.000,745,206,-644,0,0
106738665,670.000,192.000,-632.000,670,192,-632,0,0
106739416,711.000,214.000,-610.000,711,214,-610,0,0
106740169,729.000,194.000,-649.000,729,194,-649,0,0
106740920,669.000,200.000,-604.000,669,200,-604,0,0
106741672,739.000,212.000,-625.000,739,212,-625,0,0
106742432,698.000,191.000,-647.000,698,191,-647,0,0
106743183,684.000,210.000,-609.000,684,210,-609,0,0
106743934,752.000,207.000,-643.000,752,207,-643,0,0
106744685,675.000,195.000,-624.000,675,195,-624,0,0
106745446,720.000,216.000,-600.000,720,216,-600,0,0
106746196,726.000,195.000,-644.000,726,195,-644,0,0
106746947,667.000,197.000,-603.000,667,197,-603,0,0
106747699,741.000,208.000,-629.000,741,208,-629,0,0
106748458,694.000,188.000,-640.000,694,188,-640,0,0
106749210,686.000,209.000,-608.000,686,209,-608,0,0
106749961,743.000,201.000,-643.000,743,201,-643,0,0
106750713,668.000,198.000,-623.000,668,198,-623,0,0
106751465,719.000,215.000,-605.000,719,215,-605,0,0
106752217,727.000,194.000,-649.000,727,194,-649,0,0
106752977,673.000,205.000,-604.000,673,205,-604,0,0
106753729,744.000,209.000,-623.000,744,209,-623,0,0
106754481,694.000,188.000,-631.000,694,188,-631,0,0
106755234,692.000,206.000,-595.000,692,206,-595,0,0
106755986,746.000,200.000,-640.000,746,200,-640,0,0
106756738,675.000,200.000,-617.000,675,200,-617,0,0
106757490,719.000,212.000,-609.000,719,212,-609,0,0
106758250,720.000,190.000,-645.000,720,190,-645,0,0
106759003,670.000,203.000,-603.000,670,203,-603,0,0
106759754,741.000,209.000,-625.000,741,209,-625,0,0
106760506,689.000,189.000,-631.000,689,189,-631,0,0
106761258,696.000,216.000,-597.000,696,216,-597,0,0
106762011,746.000,202.000,-634.000,746,202,-634,0,0
106762770,669.000,199.000,-611.000,669,199,-611,0,0
106763522,726.000,211.000,-611.000,726,211,-611,0,0
106764274,718.000,192.000,-647.000,718,192,-647,0,0
106765025,671.000,206.000,-604.000,671,206,-604,0,0
106765785,748.000,207.000,-631.000,748,207,-631,0,0
106766537,691.000,193.000,-635.000,691,193,-635,0,0
106767289,704.000,219.000,-601.000,704,219,-601,0,0
106768041,747.000,202.000,-638.000,747,202,-638,0,0
106768792,674.000,197.000,-613.000,674,197,-613,0,0
106769552,729.000,216.000,-618.000,729,216,-618,0,0
106770303,717.000,195.000,-645.000,717,195,-645,0,0
106771055,678.000,204.000,-604.000,678,204,-604,0,0
106771808,749.000,203.000,-632.000,749,203,-632,0,0
106772559,687.000,187.000,-629.000,687,187,-629,0,0
106773311,706.000,210.000,-596.000,706,210,-596,0,0
106774071,740.000,195.000,-638.000,740,195,-638,0,0
106774824,672.000,195.000,-607.000,672,195,-607,0,0
106775574,735.000,212.000,-605.000,735,212,-605,0,0
106776325,718.000,190.000,-645.000,718,190,-645,0,0
106777085,683.000,203.000,-594.000,683,203,-594,0,0
106777837,754.000,197.000,-632.000,754,197,-632,0,0
106778589,685.000,185.000,-628.000,685,185,-628,0,0
106779340,711.000,210.000,-599.000,711,210,-599,0,0
106780092,743.000,194.000,-642.000,743,194,-642,0,0
106780851,675.000,195.000,-608.000,675,195,-608,0,0
106781602,743.000,208.000,-613.000,743,208,-613,0,0
106782354,713.000,188.000,-638.000,713,188,-638,0,0
106783106,686.000,201.000,-604.000,686,201,-604,0,0
106783866,755.000,201.000,-636.000,755,201,-636,0,0
106784616,690.000,193.000,-629.000,690,193,-629,0,0
106785368,715.000,213.000,-602.000,715,213,-602,0,0
106786119,738.000,196.000,-647.000,738,196,-647,0,0
106786878,670.000,193.000,-608.000,670,193,-608,0,0
106787629,739.000,208.000,-613.000,739,208,-613,0,0
106788381,715.000,187.000,-641.000,715,187,-641,0,0
106789132,690.000,200.000,-594.000,690,200,-594,0,0
106789891,747.000,196.000,-636.000,747,196,-636,0,0
106790641,683.000,189.000,-622.000,683,189,-622,0,0
106791393,713.000,206.000,-604.000,713,206,-604,0,0
106792145,735.000,186.000,-637.000,735,186,-637,0,0
106792897,678.000,189.000,-599.000,678,189,-599,0,0
106793657,743.000,203.000,-607.000,743,203,-607,0,0
106794408,709.000,182.000,-630.000,709,182,-630,0,0
106795160,690.000,199.000,-591.000,690,199,-591,0,0
106795910,749.000,196.000,-638.000,749,196,-638,0,0
106796670,680.000,190.000,-625.000,680,190,-625,0,0
106797423,719.000,210.000,-604.000,719,210,-604,0,0
106798173,733.000,191.000,-647.000,733,191,-647,0,0
106798925,671.000,196.000,-610.000,671,196,-610,0,0
106799677,745.000,203.000,-622.000,745,203,-622,0,0
106800429,704.000,183.000,-646.000,704,183,-646,0,0
106801189,689.000,203.000,-597.000,689,203,-597,0,0
106801941,753.000,197.000,-640.000,753,197,-640,0,0
106802691,681.000,188.000,-629.000,681,188,-629,0,0
106803450,726.000,205.000,-606.000,726,205,-606,0,0
106804203,734.000,184.000,-652.000,734,184,-652,0,0
106804955,672.000,193.000,-612.000,672,193,-612,0,0
106805706,752.000,203.000,-625.000,752,203,-625,0,0
106806458,706.000,183.000,-643.000,706,183,-643,0,0
106807219,700.000,200.000,-606.000,700,200,-606,0,0
106807970,751.000,192.000,-645.000,751,192,-645,0,0
106808722,679.000,184.000,-627.000,679,184,-627,0,0
106809474,732.000,205.000,-615.000,732,205,-615,0,0
106810225,739.000,185.000,-654.000,739,185,-654,0,0
106810980,679.000,199.000,-609.000,679,199,-609,0,0
106811740,747.000,204.000,-630.000,747,204,-630,0,0
106812490,697.000,184.000,-644.000,697,184,-644,0,0
106813242,698.000,203.000,-600.000,698,203,-600,0,0
106813994,745.000,193.000,-647.000,745,193,-647,0,0
106814746,675.000,188.000,-628.000,675,188,-628,0,0
106815506,726.000,210.000,-611.000,726,210,-611,0,0
106816258,723.000,186.000,-649.000,723,186,-649,0,0
106817010,673.000,194.000,-603.000,673,194,-603,0,0
106817762,754.000,204.000,-628.000,754,204,-628,0,0
106818514,698.000,185.000,-637.000,698,185,-637,0,0
106819274,701.000,206.000,-602.000,701,206,-602,0,0
106820025,746.000,196.000,-643.000,746,196,-643,0,0
106820777,669.000,189.000,-619.000,669,189,-619,0,0
106821529,726.000,206.000,-617.000,726,206,-617,0,0
106822289,718.000,187.000,-651.000,718,187,-651,0,0
106823042,672.000,202.000,-608.000,672,202,-608,0,0
106823794,744.000,203.000,-639.000,744,203,-639,0,0
106824544,682.000,185.000,-633.000,682,185,-633,0,0
106825295,697.000,207.000,-606.000,697,207,-606,0,0
106826055,736.000,193.000,-650.000,736,193,-650,0,0
106826806,667.000,190.000,-617.000,667,190,-617,0,0
106827557,725.000,212.000,-615.000,725,212,-615,0,0
106828316,713.000,190.000,-644.000,713,190,-644,0,0
106829067,673.000,201.000,-598.000,673,201,-598,0,0
106829819,753.000,205.000,-636.000,753,205,-636,0,0
106830569,691.000,192.000,-632.000,691,192,-632,0,0
106831321,707.000,208.000,-600.000,707,208,-600,0,0
106832079,743.000,199.000,-647.000,743,199,-647,0,0
106832832,665.000,200.000,-609.000,665,200,-609,0,0
106833582,732.000,213.000,-611.000,732,213,-611,0,0
106834333,713.000,191.000,-641.000,713,191,-641,0,0
106835094,681.000,204.000,-602.000,681,204,-602,0,0
106835845,751.000,204.000,-641.000,751,204,-641,0,0
106836597,684.000,196.000,-633.000,684,196,-633,0,0
106837349,707.000,212.000,-598.000,707,212,-598,0,0
106838100,737.000,199.000,-642.000,737,199,-642,0,0
106838859,669.000,196.000,-608.000,669,196,-608,0,0
106839610,737.000,212.000,-614.000,737,212,-614,0,0
106840362,711.000,193.000,-648.000,711,193,-648,0,0
106841114,681.000,210.000,-601.000,681,210,-601,0,0
106841866,748.000,208.000,-638.000,748,208,-638,0,0
106842626,677.000,196.000,-631.000,677,196,-631,0,0
106843378,709.000,216.000,-610.000,709,216,-610,0,0
106844130,736.000,200.000,-650.000,736,200,-650,0,0
106844882,669.000,205.000,-613.000,669,205,-613,0,0
106845640,736.000,219.000,-624.000,736,219,-624,0,0
106846392,700.000,197.000,-650.000,700,197,-650,0,0
106847144,674.000,213.000,-601.000,674,213,-601,0,0
106847895,744.000,209.000,-646.000,744,209,-646,0,0
106848646,679.000,195.000,-631.000,679,195,-631,0,0
106849406,707.000,213.000,-607.000,707,213,-607,0,0
106850158,728.000,197.000,-645.000,728,197,-645,0,0
106850910,667.000,205.000,-607.000,667,205,-607,0,0
106851660,737.000,215.000,-616.000,737,215,-616,0,0
106852421,699.000,195.000,-639.000,699,195,-639,0,0
106853172,684.000,215.000,-596.000,684,215,-596,0,0
106853924,744.000,209.000,-632.000,744,209,-632,0,0
106854682,670.000,196.000,-624.000,670,196,-624,0,0
106855434,716.000,214.000,-604.000,716,214,-604,0,0
106856186,727.000,202.000,-648.000,727,202,-648,0,0
106856939,666.000,203.000,-602.000,666,203,-602,0,0
106857690,734.000,215.000,-621.000,734,215,-621,0,0
106858442,694.000,200.000,-640.000,694,200,-640,0,0
106859202,684.000,218.000,-597.000,684,218,-597,0,0
106859955,744.000,215.000,-642.000,744,215,-642,0,0
106860706,667.000,201.000,-625.000,667,201,-625,0,0
106861458,715.000,221.000,-612.000,715,221,-612,0,0
106862210,723.000,200.000,-656.000,723,200,-656,0,0
106862962,668.000,207.000,-613.000,668,207,-613,0,0
106863722,738.000,215.000,-632.000,738,215,-632,0,0
106864474,694.000,194.000,-645.000,694,194,-645,0,0
106865226,689.000,213.000,-601.000,689,213,-601,0,0
106865978,743.000,205.000,-640.000,743,205,-640,0,0
106866730,672.000,197.000,-615.000,672,197,-615,0,0
106867490,720.000,216.000,-606.000,720,216,-606,0,0
106868242,721.000,200.000,-644.000,721,200,-644,0,0
106868995,667.000,210.000,-606.000,667,210,-606,0,0
106869746,746.000,213.000,-626.000,746,213,-626,0,0
106870498,692.000,193.000,-639.000,692,193,-639,0,0
106871258,695.000,214.000,-600.000,695,214,-600,0,0
106872011,745.000,208.000,-645.000,745,208,-645,0,0
106872762,668.000,198.000,-623.000,668,198,-623,0,0
106873514,725.000,216.000,-617.000,725,216,-617,0,0
106874267,726.000,196.000,-655.000,726,196,-655,0,0
106875019,669.000,207.000,-607.000,669,207,-607,0,0
106875777,742.000,211.000,-634.000,742,211,-634,0,0
106876530,686.000,192.000,-634.000,686,192,-634,0,0
106877280,697.000,217.000,-605.000,697,217,-605,0,0
106878033,747.000,207.000,-649.000,747,207,-649,0,0
106878785,668.000,200.000,-618.000,668,200,-618,0,0
106879544,726.000,213.000,-611.000,726,213,-611,0,0
106880296,719.000,195.000,-652.000,719,195,-652,0,0
106881047,675.000,207.000,-602.000,675,207,-602,0,0
106881800,748.000,212.000,-628.000,748,212,-628,0,0
106882551,684.000,191.000,-632.000,684,191,-632,0,0
106883312,701.000,212.000,-602.000,701,212,-602,0,0
106884063,739.000,196.000,-645.000,739,196,-645,0,0
106884816,665.000,194.000,-610.000,665,194,-610,0,0
106885566,730.000,209.000,-610.000,730,209,-610,0,0
106886319,714.000,188.000,-643.000,714,188,-643,0,0
106887078,677.000,204.000,-603.000,677,204,-603,0,0
106887830,748.000,204.000,-639.000,748,204,-639,0,0
106888582,687.000,191.000,-638.000,687,191,-638,0,0
106889333,707.000,210.000,-605.000,707,210,-605,0,0
106890094,745.000,192.000,-642.000,745,192,-642,0,0
106890845,668.000,199.000,-613.000,668,199,-613,0,0
106891597,731.000,210.000,-612.000,731,210,-612,0,0
106892349,712.000,190.000,-638.000,712,190,-638,0,0
106893100,678.000,208.000,-592.000,678,208,-592,0,0
106893860,748.000,206.000,-631.000,748,206,-631,0,0
106894610,680.000,192.000,-624.000,680,192,-624,0,0
106895363,709.000,209.000,-599.000,709,209,-599,0,0
106896115,741.000,192.000,-647.000,741,192,-647,0,0
106896867,669.000,195.000,-614.000,669,195,-614,0,0
106897626,740.000,206.000,-616.000,740,206,-616,0,0
106898379,708.000,191.000,-640.000,708,191,-640,0,0
106899131,687.000,208.000,-602.000,687,208,-602,0,0
106899883,754.000,204.000,-642.000,754,204,-642,0,0
106900634,686.000,192.000,-631.000,686,192,-631,0,0
106901395,719.000,205.000,-600.000,719,205,-600,0,0
106902147,739.000,189.000,-646.000,739,189,-646,0,0
106902899,672.000,197.000,-609.000,672,197,-609,0,0
106903649,742.000,205.000,-618.000,742,205,-618,0,0
106904402,707.000,186.000,-644.000,707,186,-644,0,0
106905161,687.000,199.000,-603.000,687,199,-603,0,0
106905913,750.000,197.000,-639.000,750,197,-639,0,0
106906665,677.000,185.000,-621.000,677,185,-621,0,0
106907416,716.000,207.000,-608.000,716,207,-608,0,0
106908175,735.000,189.000,-646.000,735,189,-646,0,0
106908927,680.000,194.000,-605.000,680,194,-605,0,0
106909677,746.000,204.000,-618.000,746,204,-618,0,0
106910430,707.000,181.000,-644.000,707,181,-644,0,0
106911188,693.000,199.000,-607.000,693,199,-607,0,0
106911940,747.000,195.000,-647.000,747,195,-647,0,0
106912692,673.000,186.000,-633.000,673,186,-633,0,0
106913443,722.000,205.000,-616.000,722,205,-616,0,0
106914195,734.000,184.000,-653.000,734,184,-653,0,0
106914955,673.000,194.000,-616.000,673,194,-616,0,0
106915707,747.000,200.000,-631.000,747,200,-631,0,0
106916459,704.000,182.000,-632.000,704,182,-632,0,0
106917211,693.000,204.000,-597.000,693,204,-597,0,0
106917963,752.000,194.000,-641.000,752,194,-641,0,0
106918723,680.000,187.000,-619.000,680,187,-619,0,0
106919475,726.000,204.000,-607.000,726,204,-607,0,0
106920226,731.000,184.000,-641.000,731,184,-641,0,0
106920979,681.000,193.000,-596.000,681,193,-596,0,0
106921738,754.000,197.000,-619.000,754,197,-619,0,0
106922490,697.000,179.000,-631.000,697,179,-631,0,0
106923240,695.000,200.000,-596.000,695,200,-596,0,0
106924000,752.000,191.000,-639.000,752,191,-639,0,0
106924749,677.000,185.000,-618.000,677,185,-618,0,0
106925502,731.000,202.000,-611.000,731,202,-611,0,0
106926254,723.000,182.000,-653.000,723,182,-653,0,0
106927006,675.000,191.000,-607.000,675,191,-607,0,0
106927766,753.000,196.000,-627.000,753,196,-627,0,0
106928517,696.000,182.000,-640.000,696,182,-640,0,0
106929269,700.000,201.000,-600.000,700,201,-600,0,0
106930020,745.000,193.000,-643.000,745,193,-643,0,0
106930780,670.000,189.000,-614.000,670,189,-614,0,0
106931532,728.000,207.000,-612.000,728,207,-612,0,0
106932283,717.000,188.000,-648.000,717,188,-648,0,0
106933035,673.000,200.000,-607.000,673,200,-607,0,0
106933786,752.000,200.000,-634.000,752,200,-634,0,0
106934545,696.000,184.000,-634.000,696,184,-634,0,0
106935296,704.000,201.000,-595.000,704,201,-595,0,0
106936049,748.000,189.000,-648.000,748,189,-648,0,0
106936801,670.000,192.000,-622.000,670,192,-622,0,0
106937552,732.000,208.000,-615.000,732,208,-615,0,0
106938312,720.000,186.000,-643.000,720,186,-643,0,0
106939064,677.000,201.000,-599.000,677,201,-599,0,0
106939816,749.000,203.000,-636.000,749,203,-636,0,0
106940567,687.000,187.000,-634.000,687,187,-634,0,0
106941318,704.000,208.000,-606.000,704,208,-606,0,0
106942078,743.000,193.000,-646.000,743,193,-646,0,0
106942830,672.000,196.000,-616.000,672,196,-616,0,0
106943582,736.000,209.000,-616.000,736,209,-616,0,0
106944334,714.000,187.000,-651.000,714,187,-651,0,0
106945085,681.000,203.000,-604.000,681,203,-604,0,0
106945844,749.000,204.000,-634.000,749,204,-634,0,0
106946594,687.000,188.000,-638.000,687,188,-638,0,0
106947347,706.000,209.000,-607.000,706,209,-607,0,0
106948099,739.000,194.000,-653.000,739,194,-653,0,0
106948850,673.000,197.000,-618.000,673,197,-618,0,0
106949602,743.000,208.000,-616.000,743,208,-616,0,0
106950354,715.000,185.000,-642.000,715,185,-642,0,0
106951115,684.000,206.000,-598.000,684,206,-598,0,0
106951867,748.000,201.000,-640.000,748,201,-640,0,0
106952618,680.000,191.000,-630.000,680,191,-630,0,0
106953370,709.000,211.000,-599.000,709,211,-599,0,0
106954122,736.000,194.000,-642.000,736,194,-642,0,0
106954875,669.000,199.000,-609.000,669,199,-609,0,0
106955626,735.000,214.000,-615.000,735,214,-615,0,0
106956387,710.000,193.000,-634.000,710,193,-634,0,0
106957139,683.000,209.000,-604.000,683,209,-604,0,0
106957891,747.000,204.000,-639.000,747,204,-639,0,0
106958642,679.000,194.000,-624.000,679,194,-624,0,0
106959394,718.000,218.000,-602.000,718,218,-602,0,0
106960145,741.000,200.000,-648.000,741,200,-648,0,0
106960898,676.000,203.000,-614.000,676,203,-614,0,0
106961657,743.000,212.000,-622.000,743,212,-622,0,0
106962409,708.000,189.000,-647.000,708,189,-647,0,0
106963161,680.000,208.000,-605.000,680,208,-605,0,0
106963914,747.000,206.000,-639.000,747,206,-639,0,0
106964665,677.000,194.000,-616.000,677,194,-616,0,0
106965417,709.000,211.000,-598.000,709,211,-598,0,0
106966176,729.000,193.000,-633.000,729,193,-633,0,0
106966929,668.000,205.000,-603.000,668,205,-603,0,0
106967680,738.000,214.000,-619.000,738,214,-619,0,0
106968432,700.000,197.000,-634.000,700,197,-634,0,0
106969184,688.000,214.000,-600.000,688,214,-600,0,0
106969935,755.000,205.000,-638.000,755,205,-638,0,0
106970694,677.000,198.000,-627.000,677,198,-627,0,0
106971446,719.000,214.000,-610.000,719,214,-610,0,0
106972197,731.000,201.000,-653.000,731,201,-653,0,0
106972949,670.000,208.000,-610.000,670,208,-610,0,0
106973708,741.000,214.000,-624.000,741,214,-624,0,0
106974459,693.000,197.000,-641.000,693,197,-641,0,0
106975210,681.000,218.000,-605.000,681,218,-605,0,0
106975970,745.000,207.000,-646.000,745,207,-646,0,0
106976721,672.000,200.000,-621.000,672,200,-621,0,0
106977473,717.000,214.000,-609.000,717,214,-609,0,0
106978224,722.000,201.000,-647.000,722,201,-647,0,0
106978983,669.000,209.000,-609.000,669,209,-609,0,0
106979734,744.000,216.000,-629.000,744,216,-629,0,0
106980486,701.000,196.000,-634.000,701,196,-634,0,0
106981238,699.000,212.000,-594.000,699,212,-594,0,0
106981991,752.000,205.000,-642.000,752,205,-642,0,0
106982750,674.000,202.000,-617.000,674,202,-617,0,0
106983502,724.000,218.000,-607.000,724,218,-607,0,0
106984254,728.000,196.000,-652.000,728,196,-652,0,0
106985006,678.000,207.000,-605.000,678,207,-605,0,0
106985758,745.000,210.000,-628.000,745,210,-628,0,0
106986518,687.000,192.000,-634.000,687,192,-634,0,0
106987269,692.000,211.000,-596.000,692,211,-596,0,0
106988020,743.000,203.000,-643.000,743,203,-643,0,0
106988772,669.000,195.000,-623.000,669,195,-623,0,0
106989532,727.000,215.000,-610.000,727,215,-610,0,0
106990282,718.000,199.000,-649.000,718,199,-649,0,0
106991034,675.000,209.000,-607.000,675,209,-607,0,0
106991786,747.000,211.000,-631.000,747,211,-631,0,0
106992538,689.000,198.000,-631.000,689,198,-631,0,0
106993298,702.000,217.000,-597.000,702,217,-597,0,0
106994050,745.000,204.000,-648.000,745,204,-648,0,0
106994803,668.000,200.000,-625.000,668,200,-625,0,0
106995553,736.000,213.000,-624.000,736,213,-624,0,0
106996305,719.000,197.000,-653.000,719,197,-653,0,0
106997065,680.000,209.000,-603.000,680,209,-603,0,0
106997818,752.000,209.000,-631.000,752,209,-631,0,0
106998569,688.000,194.000,-636.000,688,194,-636,0,0
106999321,704.000,214.000,-603.000,704,214,-603,0,0
107000073,741.000,198.000,-645.000,741,198,-645,0,0
107000825,671.000,198.000,-615.000,671,198,-615,0,0
107001585,732.000,211.000,-613.000,732,211,-613,0,0
107002337,715.000,194.000,-649.000,715,194,-649,0,0
107003088,682.000,209.000,-601.000,682,209,-601,0,0
107003841,750.000,205.000,-633.000,750,205,-633,0,0
107004592,686.000,190.000,-633.000,686,190,-633,0,0
107005352,706.000,215.000,-601.000,706,215,-601,0,0
107006103,742.000,200.000,-640.000,742,200,-640,0,0
107006855,670.000,198.000,-611.000,670,198,-611,0,0
107007607,737.000,209.000,-617.000,737,209,-617,0,0
107008358,712.000,189.000,-640.000,712,189,-640,0,0
107009117,679.000,205.000,-602.000,679,205,-602,0,0
107009870,750.000,203.000,-640.000,750,203,-640,0,0
107010622,679.000,185.000,-628.000,679,185,-628,0,0
107011373,710.000,209.000,-607.000,710,209,-607,0,0
107012125,739.000,195.000,-657.000,739,195,-657,0,0
107012883,668.000,197.000,-616.000,668,197,-616,0,0
107013635,737.000,207.000,-626.000,737,207,-626,0,0
107014387,708.000,189.000,-646.000,708,189,-646,0,0
107015139,686.000,207.000,-604.000,686,207,-604,0,0
107015892,752.000,201.000,-641.000,752,201,-641,0,0
107016650,682.000,192.000,-625.000,682,192,-625,0,0
107017401,720.000,208.000,-598.000,720,208,-598,0,0
107018152,737.000,190.000,-656.000,737,190,-656,0,0
107018903,673.000,195.000,-615.000,673,195,-615,0,0
107019663,743.000,204.000,-628.000,743,204,-628,0,0
107020415,707.000,187.000,-644.000,707,187,-644,0,0
107021165,688.000,203.000,-597.000,688,203,-597,0,0
107021917,752.000,200.000,-641.000,752,200,-641,0,0
107022675,679.000,193.000,-627.000,679,193,-627,0,0
107023427,722.000,212.000,-608.000,722,212,-608,0,0
107024179,739.000,193.000,-651.000,739,193,-651,0,0
107024931,671.000,201.000,-610.000,671,201,-610,0,0
107025690,745.000,205.000,-622.000,745,205,-622,0,0
107026443,707.000,184.000,-647.000,707,184,-647,0,0
107027195,693.000,203.000,-606.000,693,203,-606,0,0
107027947,749.000,197.000,-647.000,749,197,-647,0,0
107028699,680.000,186.000,-621.000,680,186,-621,0,0
107029451,723.000,209.000,-608.000,723,209,-608,0,0
107030203,733.000,186.000,-648.000,733,186,-648,0,0
107030964,673.000,196.000,-601.000,673,196,-601,0,0
107031715,745.000,203.000,-628.000,745,203,-628,0,0
107032467,700.000,186.000,-641.000,700,186,-641,0,0
107033220,695.000,204.000,-598.000,695,204,-598,0,0
107033972,750.000,199.000,-634.000,750,199,-634,0,0
107034723,676.000,190.000,-614.000,676,190,-614,0,0
