# STEVAL-MKI168V1 (IIS2DH) 

time[us],acc_x[mg],acc_y[mg],acc_z[mg],acc_x[LSB],acc_y[LSB],acc_z[LSB],int_1,int_2
38100177,-11.000,32.000,1087.000,-11,32,1087,0,0
38100738,-7.000,31.000,1096.000,-7,31,1096,0,0
38101491,-15.000,19.000,1102.000,-15,19,1102,0,0
38102242,-12.000,33.000,1087.000,-12,33,1087,0,0
38103002,-9.000,27.000,1114.000,-9,27,1114,0,0
38103753,-14.000,25.000,1098.000,-14,25,1098,0,0
38104505,-7.000,35.000,1085.000,-7,35,1085,0,0
38105257,-9.000,19.000,1103.000,-9,19,1103,0,0
38106007,-7.000,32.000,1089.000,-7,32,1089,0,0
38106757,-3.000,28.000,1101.000,-3,28,1101,0,0
38107516,-12.000,19.000,1100.000,-12,19,1100,0,0
38108268,-9.000,35.000,1080.000,-9,35,1080,0,0
38109021,-11.000,24.000,1100.000,-11,24,1100,0,0
38109773,-12.000,24.000,1093.000,-12,24,1093,0,0
38110524,-8.000,32.000,1081.000,-8,32,1081,0,0
38111276,-8.000,16.000,1099.000,-8,16,1099,0,0
38112029,-11.000,28.000,1086.000,-11,28,1086,0,0
38112781,-7.000,24.000,1101.000,-7,24,1101,0,0
38113532,-9.000,13.000,1104.000,-9,13,1104,0,0
38114284,-4.000,33.000,1091.000,-4,33,1091,0,0
38115036,-3.000,23.000,1110.000,-3,23,1110,0,0
38115795,-7.000,26.000,1098.000,-7,26,1098,0,0
38116547,-2.000,34.000,1096.000,-2,34,1096,0,0
38117299,-9.000,18.000,1112.000,-9,18,1112,0,0
38118051,-7.000,30.000,1091.000,-7,30,1091,0,0
38118801,-2.000,29.000,1097.000,-2,29,1097,0,0
38119553,-10.000,18.000,1105.000,-10,18,1105,0,0
38120305,-6.000,33.000,1091.000,-6,33,1091,0,0
38121057,-5.000,21.000,1100.000,-5,21,1100,0,0
38121809,-14.000,22.000,1091.000,-14,22,1091,0,0
38122569,-7.000,29.000,1093.000,-7,29,1093,0,0
38123321,-13.000,18.000,1104.000,-13,18,1104,0,0
38124073,-12.000,34.000,1081.000,-12,34,1081,0,0
38124825,-8.000,32.000,1100.000,-8,32,1100,0,0
38125577,-14.000,27.000,1107.000,-14,27,1107,0,0
38126328,-10.000,38.000,1085.000,-10,38,1085,0,0
38127081,-11.000,23.000,1099.000,-11,23,1099,0,0
38127832,-13.000,28.000,1087.000,-13,28,1087,0,0
38128584,1.000,30.000,1089.000,1,30,1089,0,0
38129336,-5.000,15.000,1110.000,-5,15,1110,0,0
38130088,-8.000,29.000,1086.000,-8,29,1086,0,0
38130839,-4.000,26.000,1101.000,-4,26,1101,0,0
38131598,-12.000,17.000,1097.000,-12,17,1097,0,0
38132351,-9.000,32.000,1082.000,-9,32,1082,0,0
38133102,-11.000,19.000,1104.000,-11,19,1104,0,0
38133853,-10.000,23.000,1089.000,-10,23,1089,0,0
38134605,-6.000,33.000,1091.000,-6,33,1091,0,0
38135358,-11.000,19.000,1106.000,-11,19,1106,0,0
38136110,-7.000,36.000,1087.000,-7,36,1087,0,0
38136861,-1.000,29.000,1105.000,-1,29,1105,0,0
38137613,-8.000,25.000,1093.000,-8,25,1093,0,0
38138366,-1.000,39.000,1085.000,-1,39,1085,0,0
38139118,-3.000,22.000,1106.000,-3,22,1106,0,0
38139876,-11.000,25.000,1090.000,-11,25,1090,0,0
38140627,-5.000,35.000,1099.000,-5,35,1099,0,0
38141379,-11.000,19.000,1097.000,-11,19,1097,0,0
38142131,-10.000,34.000,1082.000,-10,34,1082,0,0
38142882,-8.000,27.000,1098.000,-8,27,1098,0,0
38143634,-12.000,23.000,1094.000,-12,23,1094,0,0
38144385,-4.000,35.000,1084.000,-4,35,1084,0,0
38145137,-6.000,24.000,1104.000,-6,24,1104,0,0
38145897,-11.000,31.000,1093.000,-11,31,1093,0,0
38146648,-6.000,38.000,1096.000,-6,38,1096,0,0
38147400,-13.000,20.000,1107.000,-13,20,1107,0,0
38148151,-10.000,30.000,1089.000,-10,30,1089,0,0
38148903,-9.000,25.000,1104.000,-9,25,1104,0,0
38149653,-14.000,20.000,1102.000,-14,20,1102,0,0
38150405,-7.000,36.000,1092.000,-7,36,1092,0,0
38151157,-10.000,20.000,1109.000,-10,20,1109,0,0
38151916,-12.000,27.000,1092.000,-12,27,1092,0,0
38152668,-5.000,31.000,1101.000,-5,31,1101,0,0
38153420,-10.000,17.000,1114.000,-10,17,1114,0,0
38154171,-9.000,37.000,1085.000,-9,37,1085,0,0
38154924,-10.000,26.000,1100.000,-10,26,1100,0,0
38155676,-11.000,26.000,1103.000,-11,26,1103,0,0
38156427,-7.000,37.000,1093.000,-7,37,1093,0,0
38157179,-7.000,19.000,1109.000,-7,19,1109,0,0
38157932,-11.000,31.000,1091.000,-11,31,1091,0,0
38158682,-4.000,30.000,1092.000,-4,30,1092,0,0
38159441,-10.000,18.000,1103.000,-10,18,1103,0,0
38160194,-11.000,37.000,1078.000,-11,37,1078,0,0
38160946,-9.000,28.000,1101.000,-9,28,1101,0,0
38161697,-10.000,23.000,1093.000,-10,23,1093,0,0
38162449,-6.000,33.000,1086.000,-6,33,1086,0,0
38163201,-6.000,18.000,1101.000,-6,18,1101,0,0
38163953,-9.000,28.000,1090.000,-9,28,1090,0,0
38164705,-4.000,26.000,1099.000,-4,26,1099,0,0
38165456,-13.000,19.000,1100.000,-13,19,1100,0,0
38166215,-4.000,38.000,1082.000,-4,38,1082,0,0
38166966,-3.000,28.000,1101.000,-3,28,1101,0,0
38167717,-14.000,24.000,1095.000,-14,24,1095,0,0
38168470,-8.000,38.000,1089.000,-8,38,1089,0,0
38169222,-9.000,19.000,1114.000,-9,19,1114,0,0
38169974,-11.000,29.000,1089.000,-11,29,1089,0,0
38170725,-5.000,34.000,1088.000,-5,34,1088,0,0
38171477,-12.000,22.000,1096.000,-12,22,1096,0,0
38172229,-6.000,38.000,1082.000,-6,38,1082,0,0
38172982,-7.000,29.000,1105.000,-7,29,1105,0,0
38173740,-10.000,30.000,1100.000,-10,30,1100,0,0
38174492,-8.000,36.000,1099.000,-8,36,1099,0,0
38175243,-15.000,18.000,1115.000,-15,18,1115,0,0
38175996,-9.000,32.000,1096.000,-9,32,1096,0,0
38176747,-7.000,29.000,1102.000,-7,29,1102,0,0
38177500,-13.000,17.000,1111.000,-13,17,1111,0,0
38178251,-6.000,33.000,1087.000,-6,33,1087,0,0
38179004,-3.000,25.000,1108.000,-3,25,1108,0,0
38179755,-13.000,23.000,1094.000,-13,23,1094,0,0
38180515,-3.000,34.000,1091.000,-3,34,1091,0,0
38181266,-12.000,17.000,1109.000,-12,17,1109,0,0
38182018,-12.000,30.000,1088.000,-12,30,1088,0,0
38182768,-6.000,29.000,1092.000,-6,29,1092,0,0
38183520,-11.000,18.000,1101.000,-11,18,1101,0,0
38184272,-5.000,37.000,1089.000,-5,37,1089,0,0
38185023,-7.000,23.000,1104.000,-7,23,1104,0,0
38185781,-5.000,27.000,1091.000,-5,27,1091,0,0
38186532,-4.000,36.000,1090.000,-4,36,1090,0,0
38187283,-6.000,19.000,1110.000,-6,19,1110,0,0
38188036,-4.000,31.000,1091.000,-4,31,1091,0,0
38188788,-4.000,32.000,1107.000,-4,32,1107,0,0
38189539,-7.000,25.000,1104.000,-7,25,1104,0,0
38190291,-1.000,37.000,1092.000,-1,37,1092,0,0
38191043,-1.000,22.000,1115.000,-1,22,1115,0,0
38191801,-11.000,25.000,1100.000,-11,25,1100,0,0
38192554,-6.000,31.000,1091.000,-6,31,1091,0,0
38193306,-8.000,16.000,1110.000,-8,16,1110,0,0
38194058,-11.000,29.000,1084.000,-11,29,1084,0,0
38194809,-4.000,27.000,1102.000,-4,27,1102,0,0
38195562,-13.000,17.000,1104.000,-13,17,1104,0,0
38196314,-10.000,35.000,1090.000,-10,35,1090,0,0
38197066,-10.000,23.000,1108.000,-10,23,1108,0,0
38197817,-11.000,21.000,1088.000,-11,21,1088,0,0
38198570,-3.000,31.000,1088.000,-3,31,1088,0,0
38199322,-10.000,19.000,1101.000,-10,19,1101,0,0
38200074,-8.000,35.000,1092.000,-8,35,1092,0,0
38200825,-3.000,26.000,1106.000,-3,26,1106,0,0
38201578,-8.000,16.000,1104.000,-8,16,1104,0,0
38202337,-5.000,33.000,1086.000,-5,33,1086,0,0
38203090,-8.000,17.000,1108.000,-8,17,1108,0,0
38203840,-10.000,24.000,1093.000,-10,24,1093,0,0
38204591,-2.000,29.000,1101.000,-2,29,1101,0,0
38205342,-7.000,14.000,1112.000,-7,14,1112,0,0
38206094,-7.000,37.000,1087.000,-7,37,1087,0,0
38206845,-3.000,28.000,1103.000,-3,28,1103,0,0
38207597,-10.000,16.000,1102.000,-10,16,1102,0,0
38208355,-7.000,32.000,1083.000,-7,32,1083,0,0
38209107,-10.000,20.000,1106.000,-10,20,1106,0,0
38209857,-16.000,27.000,1088.000,-16,27,1088,0,0
38210609,-11.000,31.000,1096.000,-11,31,1096,0,0
38211360,-16.000,18.000,1111.000,-16,18,1111,0,0
38212112,-10.000,32.000,1095.000,-10,32,1095,0,0
38212872,-5.000,26.000,1107.000,-5,26,1107,0,0
38213623,-11.000,20.000,1108.000,-11,20,1108,0,0
38214374,-10.000,35.000,1092.000,-10,35,1092,0,0
38215127,-9.000,19.000,1103.000,-9,19,1103,0,0
38215878,-15.000,23.000,1089.000,-15,23,1089,0,0
38216630,-6.000,32.000,1092.000,-6,32,1092,0,0
38217381,-11.000,16.000,1105.000,-11,16,1105,0,0
38218133,-8.000,35.000,1085.000,-8,35,1085,0,0
38218885,-7.000,27.000,1103.000,-7,27,1103,0,0
38219635,-12.000,20.000,1106.000,-12,20,1106,0,0
38220388,-3.000,33.000,1097.000,-3,33,1097,0,0
38221147,-6.000,19.000,1122.000,-6,19,1122,0,0
38221898,-12.000,22.000,1096.000,-12,22,1096,0,0
38222650,-8.000,29.000,1097.000,-8,29,1097,0,0
38223403,-11.000,19.000,1105.000,-11,19,1105,0,0
38224155,-10.000,36.000,1085.000,-10,36,1085,0,0
38224907,-8.000,28.000,1098.000,-8,28,1098,0,0
38225657,-15.000,20.000,1100.000,-15,20,1100,0,0
38226409,-7.000,36.000,1089.000,-7,36,1089,0,0
38227160,-6.000,21.000,1104.000,-6,21,1104,0,0
38227913,-12.000,32.000,1085.000,-12,32,1085,0,0
38228664,-6.000,36.000,1095.000,-6,36,1095,0,0
38229415,-12.000,22.000,1100.000,-12,22,1100,0,0
38230174,-9.000,34.000,1077.000,-9,34,1077,0,0
38230926,-6.000,23.000,1095.000,-6,23,1095,0,0
38231676,-14.000,21.000,1095.000,-14,21,1095,0,0
38232427,-4.000,33.000,1095.000,-4,33,1095,0,0
38233179,-5.000,17.000,1108.000,-5,17,1108,0,0
38233931,-11.000,31.000,1093.000,-11,31,1093,0,0
38234682,-2.000,29.000,1098.000,-2,29,1098,0,0
38235435,-13.000,20.000,1106.000,-13,20,1106,0,0
38236194,-8.000,35.000,1090.000,-8,35,1090,0,0
38236946,-6.000,30.000,1100.000,-6,30,1100,0,0
38237698,-13.000,28.000,1100.000,-13,28,1100,0,0
38238449,-7.000,38.000,1091.000,-7,38,1091,0,0
38239200,-8.000,23.000,1107.000,-8,23,1107,0,0
38239951,-13.000,35.000,1093.000,-13,35,1093,0,0
38240703,-12.000,34.000,1099.000,-12,34,1099,0,0
38241456,-14.000,20.000,1109.000,-14,20,1109,0,0
38242208,-7.000,37.000,1088.000,-7,37,1088,0,0
38242959,-4.000,27.000,1110.000,-4,27,1110,0,0
38243718,-12.000,27.000,1095.000,-12,27,1095,0,0
38244471,-7.000,38.000,1090.000,-7,38,1090,0,0
38245223,-8.000,23.000,1108.000,-8,23,1108,0,0
38245974,-11.000,35.000,1083.000,-11,35,1083,0,0
38246726,-7.000,33.000,1094.000,-7,33,1094,0,0
38247476,-8.000,20.000,1107.000,-8,20,1107,0,0
38248227,-8.000,39.000,1095.000,-8,39,1095,0,0
38248987,-7.000,28.000,1114.000,-7,28,1114,0,0
38249739,-11.000,30.000,1095.000,-11,30,1095,0,0
38250490,-11.000,36.000,1092.000,-11,36,1092,0,0
38251240,-10.000,24.000,1112.000,-10,24,1112,0,0
38251991,-12.000,34.000,1088.000,-12,34,1088,0,0
38252742,-3.000,29.000,1102.000,-3,29,1102,0,0
38253501,-12.000,22.000,1108.000,-12,22,1108,0,0
38254254,-6.000,37.000,1086.000,-6,37,1086,0,0
38255006,-7.000,27.000,1109.000,-7,27,1109,0,0
38255757,-12.000,27.000,1096.000,-12,27,1096,0,0
38256508,-1.000,36.000,1094.000,-1,36,1094,0,0
38257261,-11.000,20.000,1112.000,-11,20,1112,0,0
38258013,-11.000,32.000,1086.000,-11,32,1086,0,0
38258765,-4.000,31.000,1101.000,-4,31,1101,0,0
38259516,-8.000,19.000,1108.000,-8,19,1108,0,0
38260276,-6.000,38.000,1090.000,-6,38,1090,0,0
38261027,-7.000,26.000,1108.000,-7,26,1108,0,0
38261778,-12.000,28.000,1094.000,-12,28,1094,0,0
38262531,-8.000,35.000,1095.000,-8,35,1095,0,0
38263283,-8.000,22.000,1112.000,-8,22,1112,0,0
38264035,-7.000,33.000,1090.000,-7,33,1090,0,0
38264786,-2.000,33.000,1098.000,-2,33,1098,0,0
38265537,-8.000,21.000,1100.000,-8,21,1100,0,0
38266289,-7.000,37.000,1086.000,-7,37,1086,0,0
38267040,-3.000,22.000,1103.000,-3,22,1103,0,0
38267798,-10.000,24.000,1088.000,-10,24,1088,0,0
38268551,-5.000,32.000,1084.000,-5,32,1084,0,0
38269303,-7.000,19.000,1099.000,-7,19,1099,0,0
38270055,-7.000,35.000,1086.000,-7,35,1086,0,0
38270807,-7.000,31.000,1099.000,-7,31,1099,0,0
38271559,-14.000,20.000,1103.000,-14,20,1103,0,0
38272311,-12.000,33.000,1088.000,-12,33,1088,0,0
38273063,-12.000,22.000,1109.000,-12,22,1109,0,0
38273815,-14.000,28.000,1094.000,-14,28,1094,0,0
38274567,-12.000,33.000,1094.000,-12,33,1094,0,0
38275319,-16.000,18.000,1103.000,-16,18,1103,0,0
38276071,-9.000,32.000,1086.000,-9,32,1086,0,0
38276823,-5.000,27.000,1092.000,-5,27,1092,0,0
38277575,-14.000,19.000,1098.000,-14,19,1098,0,0
38278327,-9.000,35.000,1085.000,-9,35,1085,0,0
38279078,-11.000,23.000,1100.000,-11,23,1100,0,0
38279830,-13.000,26.000,1085.000,-13,26,1085,0,0
38280582,-4.000,30.000,1087.000,-4,30,1087,0,0
38281339,-9.000,17.000,1105.000,-9,17,1105,0,0
38282091,-8.000,35.000,1081.000,-8,35,1081,0,0
38282842,-5.000,25.000,1104.000,-5,25,1104,0,0
38283594,-15.000,13.000,1103.000,-15,13,1103,0,0
38284345,-9.000,28.000,1084.000,-9,28,1084,0,0
38285096,-9.000,20.000,1107.000,-9,20,1107,0,0
38285848,-9.000,21.000,1092.000,-9,21,1092,0,0
38286607,-1.000,30.000,1101.000,-1,30,1101,0,0
38287358,-7.000,16.000,1115.000,-7,16,1115,0,0
38288111,-5.000,33.000,1092.000,-5,33,1092,0,0
38288862,-5.000,23.000,1105.000,-5,23,1105,0,0
38289614,-8.000,13.000,1109.000,-8,13,1109,0,0
38290365,-4.000,28.000,1097.000,-4,28,1097,0,0
38291116,-6.000,17.000,1121.000,-6,17,1121,0,0
38291873,-5.000,26.000,1091.000,-5,26,1091,0,0
38292626,-1.000,29.000,1092.000,-1,29,1092,0,0
38293378,-9.000,17.000,1108.000,-9,17,1108,0,0
38294129,-9.000,34.000,1089.000,-9,34,1089,0,0
38294880,-5.000,25.000,1104.000,-5,25,1104,0,0
38295632,-7.000,19.000,1107.000,-7,19,1107,0,0
38296384,-1.000,32.000,1096.000,-1,32,1096,0,0
38297136,-2.000,22.000,1105.000,-2,22,1105,0,0
38297887,-9.000,29.000,1095.000,-9,29,1095,0,0
38298639,-5.000,31.000,1095.000,-5,31,1095,0,0
38299399,-14.000,21.000,1112.000,-14,21,1112,0,0
38300149,-13.000,39.000,1092.000,-13,39,1092,0,0
38300901,-11.000,26.000,1108.000,-11,26,1108,0,0
38301653,-11.000,20.000,1104.000,-11,20,1104,0,0
38302404,-5.000,31.000,1095.000,-5,31,1095,0,0
38303155,-7.000,17.000,1109.000,-7,17,1109,0,0
38303908,-12.000,26.000,1090.000,-12,26,1090,0,0
38304659,-9.000,32.000,1098.000,-9,32,1098,0,0
38305412,-11.000,16.000,1102.000,-11,16,1102,0,0
38306171,-13.000,33.000,1090.000,-13,33,1090,0,0
38306924,-8.000,27.000,1108.000,-8,27,1108,0,0
38307676,-12.000,27.000,1103.000,-12,27,1103,0,0
38308428,-4.000,34.000,1098.000,-4,34,1098,0,0
38309180,-5.000,20.000,1105.000,-5,20,1105,0,0
38309932,-6.000,26.000,1090.000,-6,26,1090,0,0
38310683,-4.000,28.000,1100.000,-4,28,1100,0,0
38311435,-13.000,15.000,1109.000,-13,15,1109,0,0
38312186,-6.000,32.000,1093.000,-6,32,1093,0,0
38312938,-4.000,22.000,1114.000,-4,22,1114,0,0
38313690,-13.000,20.000,1102.000,-13,20,1102,0,0
38314442,-9.000,32.000,1096.000,-9,32,1096,0,0
38315194,-11.000,19.000,1117.000,-11,19,1117,0,0
38315946,-10.000,33.000,1095.000,-10,33,1095,0,0
38316698,-2.000,30.000,1098.000,-2,30,1098,0,0
38317449,-6.000,17.000,1104.000,-6,17,1104,0,0
38318209,-7.000,34.000,1085.000,-7,34,1085,0,0
38318961,-5.000,24.000,1111.000,-5,24,1111,0,0
38319712,-14.000,23.000,1099.000,-14,23,1099,0,0
38320463,-8.000,39.000,1090.000,-8,39,1090,0,0
38321216,-6.000,19.000,1117.000,-6,19,1117,0,0
38321966,-12.000,28.000,1092.000,-12,28,1092,0,0
38322718,-6.000,32.000,1097.000,-6,32,1097,0,0
38323470,-14.000,19.000,1108.000,-14,19,1108,0,0
38324222,-3.000,36.000,1088.000,-3,36,1088,0,0
38324974,-3.000,22.000,1105.000,-3,22,1105,0,0
38325726,-11.000,22.000,1093.000,-11,22,1093,0,0
38326478,-2.000,30.000,1091.000,-2,30,1091,0,0
38327230,-8.000,17.000,1103.000,-8,17,1103,0,0
38327983,-10.000,33.000,1089.000,-10,33,1089,0,0
38328741,-4.000,33.000,1096.000,-4,33,1096,0,0
38329492,-10.000,22.000,1099.000,-10,22,1099,0,0
38330244,-7.000,40.000,1085.000,-7,40,1085,0,0
38330996,-5.000,29.000,1097.000,-5,29,1097,0,0
38331748,-13.000,26.000,1094.000,-13,26,1094,0,0
38332500,-9.000,35.000,1093.000,-9,35,1093,0,0
38333252,-13.000,22.000,1109.000,-13,22,1109,0,0
38334004,-11.000,31.000,1091.000,-11,31,1091,0,0
38334756,-9.000,30.000,1100.000,-9,30,1100,0,0
38335507,-14.000,17.000,1101.000,-14,17,1101,0,0
38336258,-7.000,34.000,1091.000,-7,34,1091,0,0
38337010,-7.000,25.000,1106.000,-7,25,1106,0,0
38337761,-12.000,26.000,1088.000,-12,26,1088,0,0
38338513,-6.000,34.000,1095.000,-6,34,1095,0,0
38339273,-13.000,19.000,1104.000,-13,19,1104,0,0
38340024,-9.000,31.000,1081.000,-9,31,1081,0,0
38340773,-6.000,26.000,1101.000,-6,26,1101,0,0
38341525,-15.000,19.000,1107.000,-15,19,1107,0,0
38342276,-6.000,36.000,1091.000,-6,36,1091,0,0
38343027,-9.000,26.000,1110.000,-9,26,1110,0,0
38343779,-13.000,24.000,1099.000,-13,24,1099,0,0
38344531,-9.000,33.000,1091.000,-9,33,1091,0,0
38345283,-14.000,19.000,1110.000,-14,19,1110,0,0
38346035,-15.000,32.000,1091.000,-15,32,1091,0,0
38346794,-9.000,28.000,1104.000,-9,28,1104,0,0
38347546,-12.000,21.000,1105.000,-12,21,1105,0,0
38348297,-6.000,38.000,1093.000,-6,38,1093,0,0
38349048,-10.000,26.000,1111.000,-10,26,1111,0,0
38349799,-16.000,27.000,1093.000,-16,27,1093,0,0
38350551,-11.000,35.000,1099.000,-11,35,1099,0,0
38351302,-11.000,16.000,1113.000,-11,16,1113,0,0
38352055,-13.000,30.000,1095.000,-13,30,1095,0,0
38352806,-3.000,25.000,1106.000,-3,25,1106,0,0
38353559,-8.000,19.000,1107.000,-8,19,1107,0,0
38354311,-7.000,39.000,1094.000,-7,39,1094,0,0
38355063,-4.000,23.000,1113.000,-4,23,1113,0,0
38355815,-11.000,26.000,1095.000,-11,26,1095,0,0
38356567,-4.000,35.000,1090.000,-4,35,1090,0,0
38357326,-17.000,18.000,1107.000,-17,18,1107,0,0
38358079,-16.000,34.000,1087.000,-16,34,1087,0,0
38358830,-11.000,29.000,1100.000,-11,29,1100,0,0
38359583,-14.000,19.000,1101.000,-14,19,1101,0,0
38360334,-5.000,31.000,1083.000,-5,31,1083,0,0
38361086,-5.000,23.000,1104.000,-5,23,1104,0,0
38361838,-9.000,28.000,1094.000,-9,28,1094,0,0
38362590,-6.000,33.000,1093.000,-6,33,1093,0,0
38363343,-9.000,14.000,1108.000,-9,14,1108,0,0
38364095,-6.000,28.000,1093.000,-6,28,1093,0,0
38364846,-6.000,25.000,1109.000,-6,25,1109,0,0
38365598,-10.000,17.000,1107.000,-10,17,1107,0,0
38366350,-10.000,32.000,1090.000,-10,32,1090,0,0
38367102,-11.000,18.000,1109.000,-11,18,1109,0,0
38367853,-11.000,28.000,1096.000,-11,28,1096,0,0
38368613,-6.000,29.000,1094.000,-6,29,1094,0,0
38369364,-12.000,20.000,1104.000,-12,20,1104,0,0
38370115,-13.000,36.000,1085.000,-13,36,1085,0,0
38370866,-6.000,29.000,1111.000,-6,29,1111,0,0
38371618,-14.000,20.000,1117.000,-14,20,1117,0,0
38372369,-10.000,32.000,1098.000,-10,32,1098,0,0
38373120,-9.000,20.000,1112.000,-9,20,1112,0,0
38373879,-13.000,26.000,1093.000,-13,26,1093,0,0
38374631,-4.000,38.000,1099.000,-4,38,1099,0,0
38375383,-13.000,18.000,1111.000,-13,18,1111,0,0
38376135,-7.000,29.000,1090.000,-7,29,1090,0,0
38376886,1.000,24.000,1108.000,1,24,1108,0,0
38377637,-4.000,16.000,1096.000,-4,16,1096,0,0
38378389,-1.000,34.000,1080.000,-1,34,1080,0,0
38379141,-9.000,22.000,1100.000,-9,22,1100,0,0
38379899,-11.000,23.000,1089.000,-11,23,1089,0,0
38380649,-3.000,28.000,1091.000,-3,28,1091,0,0
38381401,-9.000,18.000,1106.000,-9,18,1106,0,0
38382152,-7.000,37.000,1082.000,-7,37,1082,0,0
38382904,-2.000,28.000,1105.000,-2,28,1105,0,0
38383656,-9.000,22.000,1105.000,-9,22,1105,0,0
38384408,-7.000,37.000,1090.000,-7,37,1090,0,0
38385166,-7.000,21.000,1105.000,-7,21,1105,0,0
38385919,-8.000,32.000,1087.000,-8,32,1087,0,0
38386670,-4.000,36.000,1098.000,-4,36,1098,0,0
38387423,-12.000,19.000,1110.000,-12,19,1110,0,0
38388175,-11.000,34.000,1083.000,-11,34,1083,0,0
38388927,-8.000,27.000,1104.000,-8,27,1104,0,0
38389678,-14.000,24.000,1093.000,-14,24,1093,0,0
38390431,-4.000,36.000,1094.000,-4,36,1094,0,0
38391183,-8.000,20.000,1108.000,-8,20,1108,0,0
38391934,-9.000,31.000,1092.000,-9,31,1092,0,0
38392693,-4.000,32.000,1098.000,-4,32,1098,0,0
38393444,-10.000,19.000,1103.000,-10,19,1103,0,0
38394196,-12.000,37.000,1085.000,-12,37,1085,0,0
38394947,-8.000,25.000,1102.000,-8,25,1102,0,0
38395699,-12.000,22.000,1098.000,-12,22,1098,0,0
38396451,-10.000,35.000,1088.000,-10,35,1088,0,0
38397202,-9.000,18.000,1110.000,-9,18,1110,0,0
38397955,-7.000,25.000,1083.000,-7,25,1083,0,0
38398706,-6.000,25.000,1088.000,-6,25,1088,0,0
38399458,-12.000,10.000,1104.000,-12,10,1104,0,0
38400216,-9.000,29.000,1085.000,-9,29,1085,0,0
38400968,-5.000,24.000,1106.000,-5,24,1106,0,0
38401719,-8.000,22.000,1099.000,-8,22,1099,0,0
38402471,-3.000,35.000,1095.000,-3,35,1095,0,0
38403223,-3.000,18.000,1110.000,-3,18,1110,0,0
38403974,-6.000,28.000,1086.000,-6,28,1086,0,0
38404726,1.000,26.000,1090.000,1,26,1090,0,0
38405486,-8.000,17.000,1103.000,-8,17,1103,0,0
38406238,-4.000,33.000,1086.000,-4,33,1086,0,0
38406991,-4.000,25.000,1106.000,-4,25,1106,0,0
38407741,-9.000,25.000,1101.000,-9,25,1101,0,0
38408492,-3.000,38.000,1099.000,-3,38,1099,0,0
38409244,-4.000,20.000,1105.000,-4,20,1105,0,0
38409996,-4.000,33.000,1091.000,-4,33,1091,0,0
38410748,-1.000,30.000,1100.000,-1,30,1100,0,0
38411500,-7.000,20.000,1100.000,-7,20,1100,0,0
38412252,-3.000,35.000,1084.000,-3,35,1084,0,0
38413011,-5.000,22.000,1100.000,-5,22,1100,0,0
38413761,-9.000,20.000,1094.000,-9,20,1094,0,0
38414513,-5.000,33.000,1089.000,-5,33,1089,0,0
38415265,-11.000,19.000,1111.000,-11,19,1111,0,0
38416016,-13.000,33.000,1087.000,-13,33,1087,0,0
38416768,-8.000,32.000,1095.000,-8,32,1095,0,0
38417520,-12.000,16.000,1100.000,-12,16,1100,0,0
38418278,-6.000,33.000,1091.000,-6,33,1091,0,0
38419031,-6.000,23.000,1102.000,-6,23,1102,0,0
38419783,-14.000,24.000,1084.000,-14,24,1084,0,0
38420533,-6.000,33.000,1092.000,-6,33,1092,0,0
38421284,-10.000,20.000,1105.000,-10,20,1105,0,0
38422043,-5.000,31.000,1088.000,-5,31,1088,0,0
38422794,-4.000,31.000,1094.000,-4,31,1094,0,0
38423546,-11.000,19.000,1099.000,-11,19,1099,0,0
38424297,-8.000,38.000,1091.000,-8,38,1091,0,0
38425049,-6.000,25.000,1109.000,-6,25,1109,0,0
38425799,-11.000,27.000,1096.000,-11,27,1096,0,0
38426559,-3.000,35.000,1094.000,-3,35,1094,0,0
38427311,-8.000,23.000,1111.000,-8,23,1111,0,0
38428064,-6.000,34.000,1092.000,-6,34,1092,0,0
38428815,-5.000,30.000,1104.000,-5,30,1104,0,0
38429567,-12.000,21.000,1102.000,-12,21,1102,0,0
38430319,-9.000,37.000,1088.000,-9,37,1088,0,0
38431072,-9.000,26.000,1105.000,-9,26,1105,0,0
38431823,-10.000,27.000,1092.000,-10,27,1092,0,0
38432575,-6.000,35.000,1098.000,-6,35,1098,0,0
38433327,-11.000,17.000,1113.000,-11,17,1113,0,0
38434078,-8.000,29.000,1086.000,-8,29,1086,0,0
38434829,-7.000,28.000,1101.000,-7,28,1101,0,0
38435580,-12.000,18.000,1104.000,-12,18,1104,0,0
38436340,-3.000,35.000,1091.000,-3,35,1091,0,0
38437091,1.000,22.000,1107.000,1,22,1107,0,0
38437843,-4.000,23.000,1097.000,-4,23,1097,0,0
38438594,-3.000,33.000,1096.000,-3,33,1096,0,0
38439346,-11.000,21.000,1108.000,-11,21,1108,0,0
38440098,-6.000,40.000,1093.000,-6,40,1093,0,0
38440849,-6.000,30.000,1101.000,-6,30,1101,0,0
38441601,-14.000,21.000,1098.000,-14,21,1098,0,0
38442361,-5.000,35.000,1091.000,-5,35,1091,0,0
38443112,-3.000,22.000,1108.000,-3,22,1108,0,0
38443861,-11.000,24.000,1092.000,-11,24,1092,0,0
38444613,-6.000,32.000,1093.000,-6,32,1093,0,0
38445364,-8.000,18.000,1103.000,-8,18,1103,0,0
38446123,-6.000,32.000,1082.000,-6,32,1082,0,0
38446874,-2.000,26.000,1098.000,-2,26,1098,0,0
38447627,-13.000,22.000,1095.000,-13,22,1095,0,0
38448379,-8.000,36.000,1093.000,-8,36,1093,0,0
38449131,-7.000,22.000,1112.000,-7,22,1112,0,0
38449883,-11.000,25.000,1099.000,-11,25,1099,0,0
38450633,-6.000,33.000,1096.000,-6,33,1096,0,0
38451385,-11.000,20.000,1106.000,-11,20,1106,0,0
38452136,-9.000,34.000,1085.000,-9,34,1085,0,0
38452896,-6.000,26.000,1107.000,-6,26,1107,0,0
38453648,-16.000,21.000,1101.000,-16,21,1101,0,0
38454399,-8.000,34.000,1087.000,-8,34,1087,0,0
38455150,-10.000,18.000,1105.000,-10,18,1105,0,0
38455902,-13.000,29.000,1095.000,-13,29,1095,0,0
38456652,-4.000,31.000,1096.000,-4,31,1096,0,0
38457404,-14.000,16.000,1101.000,-14,16,1101,0,0
38458156,-12.000,33.000,1094.000,-12,33,1094,0,0
38458908,-10.000,24.000,1104.000,-10,24,1104,0,0
38459660,-15.000,16.000,1100.000,-15,16,1100,0,0
38460412,-7.000,30.000,1091.000,-7,30,1091,0,0
38461171,-9.000,18.000,1106.000,-9,18,1106,0,0
38461923,-10.000,28.000,1095.000,-10,28,1095,0,0
38462674,-1.000,32.000,1101.000,-1,32,1101,0,0
38463426,-4.000,16.000,1113.000,-4,16,1113,0,0
38464177,-10.000,33.000,1091.000,-10,33,1091,0,0
38464929,-9.000,24.000,1110.000,-9,24,1110,0,0
38465681,-17.000,15.000,1099.000,-17,15,1099,0,0
38466433,-12.000,26.000,1090.000,-12,26,1090,0,0
38467184,-9.000,13.000,1103.000,-9,13,1103,0,0
38467936,-12.000,24.000,1092.000,-12,24,1092,0,0
38468686,-5.000,29.000,1097.000,-5,29,1097,0,0
38469438,-11.000,19.000,1105.000,-11,19,1105,0,0
38470196,-7.000,35.000,1083.000,-7,35,1083,0,0
38470949,-7.000,24.000,1105.000,-7,24,1105,0,0
38471699,-12.000,21.000,1100.000,-12,21,1100,0,0
38472452,-4.000,37.000,1100.000,-4,37,1100,0,0
38473203,-11.000,21.000,1116.000,-11,21,1116,0,0
38473955,-9.000,32.000,1094.000,-9,32,1094,0,0
38474707,-2.000,33.000,1099.000,-2,33,1099,0,0
38475458,-12.000,19.000,1110.000,-12,19,1110,0,0
38476216,-8.000,33.000,1087.000,-8,33,1087,0,0
38476968,-7.000,28.000,1106.000,-7,28,1106,0,0
38477719,-16.000,21.000,1097.000,-16,21,1097,0,0
38478472,-8.000,33.000,1088.000,-8,33,1088,0,0
38479224,-10.000,18.000,1102.000,-10,18,1102,0,0
38479975,-9.000,28.000,1086.000,-9,28,1086,0,0
38480726,-3.000,32.000,1096.000,-3,32,1096,0,0
38481478,-11.000,22.000,1107.000,-11,22,1107,0,0
38482231,-7.000,31.000,1088.000,-7,31,1088,0,0
38482983,-10.000,21.000,1110.000,-10,21,1110,0,0
38483741,-14.000,25.000,1092.000,-14,25,1092,0,0
38484493,-9.000,36.000,1091.000,-9,36,1091,0,0
38485244,-13.000,18.000,1112.000,-13,18,1112,0,0
38485997,-16.000,32.000,1088.000,-16,32,1088,0,0
38486748,-5.000,27.000,1107.000,-5,27,1107,0,0
38487500,-13.000,16.000,1104.000,-13,16,1104,0,0
38488252,-7.000,32.000,1086.000,-7,32,1086,0,0
38489005,-2.000,21.000,1101.000,-2,21,1101,0,0
38489756,-8.000,19.000,1093.000,-8,19,1093,0,0
38490508,-1.000,30.000,1093.000,-1,30,1093,0,0
38491260,-8.000,17.000,1114.000,-8,17,1114,0,0
38492011,-6.000,29.000,1086.000,-6,29,1086,0,0
38492763,-6.000,27.000,1094.000,-6,27,1094,0,0
38493514,-15.000,17.000,1100.000,-15,17,1100,0,0
38494266,-6.000,37.000,1082.000,-6,37,1082,0,0
38495019,-7.000,25.000,1102.000,-7,25,1102,0,0
38495777,-14.000,24.000,1094.000,-14,24,1094,0,0
38496530,-8.000,36.000,1093.000,-8,36,1093,0,0
38497281,-14.000,19.000,1106.000,-14,19,1106,0,0
38498033,-11.000,32.000,1093.000,-11,32,1093,0,0
38498783,-6.000,28.000,1100.000,-6,28,1100,0,0
38499535,-17.000,18.000,1103.000,-17,18,1103,0,0
38500287,-12.000,35.000,1092.000,-12,35,1092,0,0
38501039,-7.000,23.000,1098.000,-7,23,1098,0,0
38501791,-13.000,25.000,1091.000,-13,25,1091,0,0
38502549,-6.000,27.000,1085.000,-6,27,1085,0,0
38503300,-7.000,16.000,1104.000,-7,16,1104,0,0
38504052,-7.000,28.000,1083.000,-7,28,1083,0,0
38504802,-1.000,27.000,1097.000,-1,27,1097,0,0
38505555,-11.000,20.000,1103.000,-11,20,1103,0,0
38506315,-11.000,35.000,1085.000,-11,35,1085,0,0
38507067,-9.000,25.000,1108.000,-9,25,1108,0,0
38507818,-13.000,29.000,1091.000,-13,29,1091,0,0
38508571,-7.000,34.000,1093.000,-7,34,1093,0,0
38509323,-16.000,21.000,1099.000,-16,21,1099,0,0
38510075,-14.000,34.000,1080.000,-14,34,1080,0,0
38510826,-9.000,29.000,1093.000,-9,29,1093,0,0
38511579,-13.000,23.000,1099.000,-13,23,1099,0,0
38512331,-3.000,34.000,1086.000,-3,34,1086,0,0
38513083,-3.000,23.000,1110.000,-3,23,1110,0,0
38513835,-7.000,28.000,1092.000,-7,28,1092,0,0
38514587,-2.000,32.000,1094.000,-2,32,1094,0,0
38515339,-9.000,18.000,1109.000,-9,18,1109,0,0
38516091,-12.000,31.000,1083.000,-12,31,1083,0,0
38516843,-7.000,25.000,1100.000,-7,25,1100,0,0
38517596,-15.000,18.000,1099.000,-15,18,1099,0,0
38518348,-8.000,34.000,1081.000,-8,34,1081,0,0
38519099,-6.000,24.000,1097.000,-6,24,1097,0,0
38519849,-9.000,29.000,1086.000,-9,29,1086,0,0
38520602,-4.000,35.000,1085.000,-4,35,1085,0,0
38521353,-9.000,20.000,1102.000,-9,20,1102,0,0
38522105,-8.000,36.000,1079.000,-8,36,1079,0,0
38522856,-8.000,30.000,1097.000,-8,30,1097,0,0
38523616,-15.000,23.000,1098.000,-15,23,1098,0,0
38524368,-9.000,36.000,1085.000,-9,36,1085,0,0
38525120,-9.000,23.000,1105.000,-9,23,1105,0,0
38525872,-10.000,31.000,1091.000,-10,31,1091,0,0
38526624,-6.000,31.000,1097.000,-6,31,1097,0,0
38527376,-12.000,16.000,1109.000,-12,16,1109,0,0
38528128,-8.000,34.000,1092.000,-8,34,1092,0,0
38528880,-6.000,27.000,1103.000,-6,27,1103,0,0
38529632,-14.000,20.000,1100.000,-14,20,1100,0,0
38530384,-5.000,34.000,1084.000,-5,34,1084,0,0
38531136,-10.000,20.000,1107.000,-10,20,1107,0,0
38531888,-11.000,27.000,1090.000,-11,27,1090,0,0
38532640,-4.000,33.000,1097.000,-4,33,1097,0,0
38533391,-12.000,20.000,1105.000,-12,20,1105,0,0
38534142,-9.000,35.000,1085.000,-9,35,1085,0,0
38534893,-7.000,28.000,1098.000,-7,28,1098,0,0
38535652,-11.000,22.000,1096.000,-11,22,1096,0,0
38536404,-5.000,39.000,1088.000,-5,39,1088,0,0
38537156,-8.000,23.000,1108.000,-8,23,1108,0,0
38537909,-12.000,32.000,1093.000,-12,32,1093,0,0
38538658,-6.000,33.000,1100.000,-6,33,1100,0,0
38539410,-13.000,19.000,1110.000,-13,19,1110,0,0
38540169,-11.000,31.000,1092.000,-11,31,1092,0,0
38540920,-6.000,22.000,1109.000,-6,22,1109,0,0
38541672,-15.000,18.000,1097.000,-15,18,1097,0,0
38542424,-7.000,34.000,1097.000,-7,34,1097,0,0
38543175,-11.000,18.000,1111.000,-11,18,1111,0,0
38543927,-12.000,27.000,1088.000,-12,27,1088,0,0
38544685,-6.000,31.000,1103.000,-6,31,1103,0,0
38545436,-14.000,20.000,1114.000,-14,20,1114,0,0
38546188,-11.000,36.000,1091.000,-11,36,1091,0,0
38546941,-5.000,29.000,1112.000,-5,29,1112,0,0
38547691,-8.000,23.000,1100.000,-8,23,1100,0,0
38548443,-8.000,36.000,1092.000,-8,36,1092,0,0
38549195,-9.000,21.000,1111.000,-9,21,1111,0,0
38549947,-10.000,30.000,1094.000,-10,30,1094,0,0
38550699,-6.000,28.000,1093.000,-6,28,1093,0,0
38551450,-8.000,13.000,1104.000,-8,13,1104,0,0
38552203,-5.000,33.000,1083.000,-5,33,1083,0,0
38552955,-6.000,24.000,1104.000,-6,24,1104,0,0
38553707,-12.000,22.000,1102.000,-12,22,1102,0,0
38554466,-5.000,32.000,1089.000,-5,32,1089,0,0
38555217,-4.000,19.000,1106.000,-4,19,1106,0,0
38555969,-11.000,29.000,1086.000,-11,29,1086,0,0
38556719,-5.000,31.000,1094.000,-5,31,1094,0,0
38557472,-13.000,19.000,1094.000,-13,19,1094,0,0
38558224,-13.000,36.000,1083.000,-13,36,1083,0,0
38558975,-11.000,25.000,1106.000,-11,25,1106,0,0
38559727,-19.000,21.000,1095.000,-19,21,1095,0,0
38560479,-10.000,33.000,1091.000,-10,33,1091,0,0
38561231,-9.000,21.000,1112.000,-9,21,1112,0,0
38561984,-13.000,29.000,1090.000,-13,29,1090,0,0
38562735,-4.000,30.000,1095.000,-4,30,1095,0,0
38563488,-12.000,19.000,1102.000,-12,19,1102,0,0
38564240,-11.000,34.000,1084.000,-11,34,1084,0,0
38564992,-7.000,27.000,1103.000,-7,27,1103,0,0
38565752,-11.000,25.000,1095.000,-11,25,1095,0,0
38566504,-6.000,33.000,1096.000,-6,33,1096,0,0
38567256,-13.000,18.000,1116.000,-13,18,1116,0,0
38568008,-11.000,34.000,1087.000,-11,34,1087,0,0
38568758,-6.000,34.000,1092.000,-6,34,1092,0,0
38569509,-10.000,20.000,1102.000,-10,20,1102,0,0
38570262,-5.000,34.000,1086.000,-5,34,1086,0,0
38571014,-11.000,24.000,1109.000,-11,24,1109,0,0
38571765,-10.000,26.000,1103.000,-10,26,1103,0,0
38572517,-5.000,32.000,1100.000,-5,32,1100,0,0
38573269,-13.000,17.000,1113.000,-13,17,1113,0,0
38574020,-13.000,29.000,1086.000,-13,29,1086,0,0
38574771,-7.000,30.000,1103.000,-7,30,1103,0,0
38575523,-14.000,14.000,1105.000,-14,14,1105,0,0
38576275,-11.000,28.000,1087.000,-11,28,1087,0,0
38577027,-9.000,20.000,1100.000,-9,20,1100,0,0
38577786,-11.000,21.000,1095.000,-11,21,1095,0,0
38578538,-5.000,30.000,1095.000,-5,30,1095,0,0
38579290,-7.000,16.000,1107.000,-7,16,1107,0,0
38580041,-9.000,28.000,1093.000,-9,28,1093,0,0
38580792,-4.000,28.000,1099.000,-4,28,1099,0,0
38581544,-6.000,17.000,1110.000,-6,17,1110,0,0
38582296,-2.000,36.000,1088.000,-2,36,1088,0,0
38583048,-4.000,27.000,1106.000,-4,27,1106,0,0
38583800,-11.000,29.000,1089.000,-11,29,1089,0,0
38584551,-9.000,34.000,1095.000,-9,34,1095,0,0
38585304,-9.000,17.000,1112.000,-9,17,1112,0,0
38586064,-9.000,32.000,1087.000,-9,32,1087,0,0
38586816,-3.000,28.000,1107.000,-3,28,1107,0,0
38587568,-10.000,16.000,1099.000,-10,16,1099,0,0
38588320,-5.000,33.000,1082.000,-5,33,1082,0,0
38589072,-12.000,22.000,1096.000,-12,22,1096,0,0
38589824,-14.000,29.000,1085.000,-14,29,1085,0,0
38590576,-5.000,35.000,1090.000,-5,35,1090,0,0
38591328,-13.000,19.000,1103.000,-13,19,1103,0,0
38592080,-6.000,32.000,1086.000,-6,32,1086,0,0
38592832,-6.000,22.000,1098.000,-6,22,1098,0,0
38593584,-15.000,14.000,1096.000,-15,14,1096,0,0
38594335,-10.000,28.000,1083.000,-10,28,1083,0,0
38595087,-9.000,19.000,1103.000,-9,19,1103,0,0
38595838,-11.000,23.000,1096.000,-11,23,1096,0,0
38596591,-4.000,33.000,1094.000,-4,33,1094,0,0
38597342,-9.000,18.000,1105.000,-9,18,1105,0,0
38598095,-5.000,31.000,1085.000,-5,31,1085,0,0
38598853,-3.000,27.000,1091.000,-3,27,1091,0,0
38599604,-12.000,18.000,1099.000,-12,18,1099,0,0
38600356,-6.000,35.000,1088.000,-6,35,1088,0,0
38601108,-6.000,21.000,1103.000,-6,21,1103,0,0
38601859,-11.000,27.000,1098.000,-11,27,1098,0,0
38602611,-3.000,38.000,1098.000,-3,38,1098,0,0
38603362,-6.000,22.000,1107.000,-6,22,1107,0,0
38604121,-5.000,31.000,1087.000,-5,31,1087,0,0
38604873,-5.000,28.000,1104.000,-5,28,1104,0,0
38605624,-12.000,21.000,1103.000,-12,21,1103,0,0
38606376,-7.000,35.000,1091.000,-7,35,1091,0,0
38607129,-8.000,20.000,1112.000,-8,20,1112,0,0
38607880,-7.000,28.000,1092.000,-7,28,1092,0,0
38608633,-6.000,34.000,1098.000,-6,34,1098,0,0
38609385,-11.000,16.000,1102.000,-11,16,1102,0,0
38610137,-8.000,32.000,1084.000,-8,32,1084,0,0
38610888,-6.000,22.000,1099.000,-6,22,1099,0,0
38611640,-11.000,19.000,1096.000,-11,19,1096,0,0
38612392,-6.000,31.000,1094.000,-6,31,1094,0,0
38613145,-7.000,21.000,1111.000,-7,21,1111,0,0
38613896,-12.000,29.000,1094.000,-12,29,1094,0,0
38614648,-7.000,32.000,1098.000,-7,32,1098,0,0
38615399,-10.000,18.000,1104.000,-10,18,1104,0,0
38616150,-8.000,34.000,1085.000,-8,34,1085,0,0
38616902,-9.000,23.000,1099.000,-9,23,1099,0,0
38617660,-10.000,22.000,1101.000,-10,22,1101,0,0
38618413,-7.000,34.000,1093.000,-7,34,1093,0,0
38619164,-9.000,21.000,1113.000,-9,21,1113,0,0
38619916,-14.000,28.000,1094.000,-14,28,1094,0,0
38620667,-7.000,29.000,1096.000,-7,29,1096,0,0
38621419,-12.000,18.000,1104.000,-12,18,1104,0,0
38622170,-6.000,32.000,1086.000,-6,32,1086,0,0
38622920,-7.000,25.000,1108.000,-7,25,1108,0,0
38623672,-15.000,20.000,1099.000,-15,20,1099,0,0
38624424,-9.000,38.000,1090.000,-9,38,1090,0,0
38625175,-7.000,20.000,1104.000,-7,20,1104,0,0
38625927,-9.000,27.000,1091.000,-9,27,1091,0,0
38626685,-8.000,30.000,1092.000,-8,30,1092,0,0
38627437,-13.000,18.000,1103.000,-13,18,1103,0,0
38628189,-3.000,34.000,1087.000,-3,34,1087,0,0
38628941,-5.000,30.000,1106.000,-5,30,1106,0,0
38629692,-10.000,23.000,1097.000,-10,23,1097,0,0
38630444,-4.000,38.000,1085.000,-4,38,1085,0,0
38631195,-10.000,21.000,1103.000,-10,21,1103,0,0
38631947,-12.000,34.000,1091.000,-12,34,1091,0,0
38632699,-5.000,36.000,1101.000,-5,36,1101,0,0
38633458,-11.000,19.000,1104.000,-11,19,1104,0,0
38634209,-10.000,35.000,1087.000,-10,35,1087,0,0
38634961,-3.000,26.000,1108.000,-3,26,1108,0,0
38635712,-9.000,24.000,1096.000,-9,24,1096,0,0
38636464,-4.000,34.000,1088.000,-4,34,1088,0,0
38637216,-14.000,21.000,1108.000,-14,21,1108,0,0
38637968,-14.000,32.000,1082.000,-14,32,1082,0,0
38638720,-8.000,31.000,1105.000,-8,31,1105,0,0
38639471,-15.000,17.000,1109.000,-15,17,1109,0,0
38640232,-10.000,34.000,1088.000,-10,34,1088,0,0
38640984,-8.000,23.000,1107.000,-8,23,1107,0,0
38641733,-14.000,21.000,1105.000,-14,21,1105,0,0
38642485,-10.000,33.000,1095.000,-10,33,1095,0,0
38643237,-10.000,17.000,1105.000,-10,17,1105,0,0
38643989,-9.000,33.000,1082.000,-9,33,1082,0,0
38644741,-6.000,31.000,1092.000,-6,31,1092,0,0
38645493,-15.000,17.000,1103.000,-15,17,1103,0,0
38646244,-9.000,35.000,1082.000,-9,35,1082,0,0
38647003,-6.000,27.000,1105.000,-6,27,1105,0,0
38647755,-11.000,26.000,1102.000,-11,26,1102,0,0
38648507,-5.000,32.000,1095.000,-5,32,1095,0,0
38649259,-12.000,18.000,1107.000,-12,18,1107,0,0
38650009,-14.000,28.000,1092.000,-14,28,1092,0,0
38650767,-6.000,27.000,1100.000,-6,27,1100,0,0
38651519,-13.000,18.000,1104.000,-13,18,1104,0,0
38652270,-10.000,34.000,1096.000,-10,34,1096,0,0
38653022,-7.000,21.000,1110.000,-7,21,1110,0,0
38653774,-13.000,25.000,1089.000,-13,25,1089,0,0
38654525,-8.000,34.000,1094.000,-8,34,1094,0,0
38655276,-7.000,17.000,1099.000,-7,17,1099,0,0
38656028,-7.000,30.000,1081.000,-7,30,1081,0,0
38656780,-4.000,30.000,1103.000,-4,30,1103,0,0
38657530,-12.000,14.000,1098.000,-12,14,1098,0,0
38658282,-5.000,28.000,1089.000,-5,28,1089,0,0
38659041,-3.000,19.000,1107.000,-3,19,1107,0,0
38659792,-11.000,18.000,1095.000,-11,18,1095,0,0
38660544,-3.000,30.000,1095.000,-3,30,1095,0,0
38661296,-5.000,16.000,1108.000,-5,16,1108,0,0
38662047,-5.000,32.000,1090.000,-5,32,1090,0,0
38662799,-2.000,31.000,1111.000,-2,31,1111,0,0
38663551,-8.000,20.000,1107.000,-8,20,1107,0,0
38664304,-3.000,35.000,1088.000,-3,35,1088,0,0
38665056,-7.000,24.000,1112.000,-7,24,1112,0,0
38665808,-7.000,24.000,1100.000,-7,24,1100,0,0
38666560,0.000,30.000,1092.000,0,30,1092,0,0
38667312,-9.000,17.000,1104.000,-9,17,1104,0,0
38668064,-8.000,31.000,1089.000,-8,31,1089,0,0
38668816,-7.000,25.000,1103.000,-7,25,1103,0,0
38669568,-14.000,19.000,1100.000,-14,19,1100,0,0
38670320,-7.000,35.000,1089.000,-7,35,1089,0,0
38671080,-7.000,25.000,1106.000,-7,25,1106,0,0
38671832,-7.000,30.000,1095.000,-7,30,1095,0,0
38672584,1.000,36.000,1094.000,1,36,1094,0,0
38673336,-8.000,19.000,1104.000,-8,19,1104,0,0
38674087,-10.000,32.000,1082.000,-10,32,1082,0,0
38674839,-9.000,29.000,1103.000,-9,29,1103,0,0
38675591,-15.000,19.000,1111.000,-15,19,1111,0,0
38676344,-6.000,33.000,1090.000,-6,33,1090,0,0
38677095,-6.000,18.000,1107.000,-6,18,1107,0,0
38677847,-9.000,24.000,1095.000,-9,24,1095,0,0
38678599,6.000,35.000,1096.000,6,35,1096,0,0
38679351,-3.000,17.000,1103.000,-3,17,1103,0,0
38680103,-4.000,34.000,1084.000,-4,34,1084,0,0
38680855,-3.000,27.000,1094.000,-3,27,1094,0,0
38681607,-10.000,19.000,1097.000,-10,19,1097,0,0
38682368,-8.000,35.000,1091.000,-8,35,1091,0,0
38683120,-3.000,24.000,1106.000,-3,24,1106,0,0
38683872,-11.000,30.000,1088.000,-11,30,1088,0,0
38684624,-5.000,37.000,1096.000,-5,37,1096,0,0
38685376,-8.000,24.000,1100.000,-8,24,1100,0,0
38686128,-3.000,38.000,1087.000,-3,38,1087,0,0
38686878,-3.000,33.000,1108.000,-3,33,1108,0,0
38687637,-8.000,22.000,1103.000,-8,22,1103,0,0
38688388,-10.000,40.000,1090.000,-10,40,1090,0,0
38689140,-11.000,19.000,1112.000,-11,19,1112,0,0
38689892,-14.000,31.000,1088.000,-14,31,1088,0,0
38690644,-10.000,38.000,1098.000,-10,38,1098,0,0
38691395,-13.000,22.000,1107.000,-13,22,1107,0,0
38692147,-8.000,35.000,1088.000,-8,35,1088,0,0
38692899,-11.000,27.000,1108.000,-11,27,1108,0,0
38693658,-14.000,23.000,1100.000,-14,23,1100,0,0
38694409,-8.000,34.000,1089.000,-8,34,1089,0,0
38695160,-12.000,18.000,1114.000,-12,18,1114,0,0
38695912,-8.000,27.000,1094.000,-8,27,1094,0,0
38696664,-4.000,33.000,1100.000,-4,33,1100,0,0
38697416,-11.000,18.000,1104.000,-11,18,1104,0,0
38698167,-6.000,34.000,1084.000,-6,34,1084,0,0
38698920,-6.000,27.000,1095.000,-6,27,1095,0,0
38699672,-12.000,26.000,1094.000,-12,26,1094,0,0
38700424,-8.000,38.000,1084.000,-8,38,1084,0,0
38701175,-11.000,22.000,1107.000,-11,22,1107,0,0
38701928,-10.000,33.000,1094.000,-10,33,1094,0,0
38702687,-8.000,33.000,1097.000,-8,33,1097,0,0
38703440,-13.000,19.000,1106.000,-13,19,1106,0,0
38704192,-7.000,35.000,1083.000,-7,35,1083,0,0
38704942,-9.000,28.000,1101.000,-9,28,1101,0,0
38705694,-8.000,22.000,1096.000,-8,22,1096,0,0
38706445,-4.000,35.000,1092.000,-4,35,1092,0,0
38707197,-8.000,23.000,1103.000,-8,23,1103,0,0
38707949,-10.000,33.000,1082.000,-10,33,1082,0,0
38708700,-4.000,34.000,1087.000,-4,34,1087,0,0
38709451,-8.000,19.000,1099.000,-8,19,1099,0,0
38710203,-6.000,36.000,1082.000,-6,36,1082,0,0
38710964,-3.000,28.000,1103.000,-3,28,1103,0,0
38711715,-11.000,27.000,1098.000,-11,27,1098,0,0
38712467,-5.000,35.000,1090.000,-5,35,1090,0,0
38713219,-9.000,18.000,1108.000,-9,18,1108,0,0
38713971,-7.000,30.000,1090.000,-7,30,1090,0,0
38714722,-4.000,30.000,1093.000,-4,30,1093,0,0
38715474,-9.000,19.000,1098.000,-9,19,1098,0,0
38716225,-9.000,35.000,1080.000,-9,35,1080,0,0
38716977,-3.000,26.000,1103.000,-3,26,1103,0,0
38717728,-8.000,24.000,1098.000,-8,24,1098,0,0
38718480,-3.000,32.000,1091.000,-3,32,1091,0,0
38719232,-8.000,18.000,1107.000,-8,18,1107,0,0
38719985,-10.000,27.000,1088.000,-10,27,1088,0,0
38720744,-8.000,24.000,1089.000,-8,24,1089,0,0
38721497,-16.000,12.000,1102.000,-16,12,1102,0,0
38722249,-15.000,29.000,1086.000,-15,29,1086,0,0
38723001,-10.000,23.000,1102.000,-10,23,1102,0,0
38723752,-17.000,28.000,1095.000,-17,28,1095,0,0
38724505,-11.000,38.000,1095.000,-11,38,1095,0,0
38725257,-11.000,23.000,1112.000,-11,23,1112,0,0
38726009,-8.000,38.000,1086.000,-8,38,1086,0,0
38726759,-4.000,31.000,1098.000,-4,31,1098,0,0
38727511,-11.000,17.000,1104.000,-11,17,1104,0,0
38728271,-5.000,34.000,1092.000,-5,34,1092,0,0
38729023,-9.000,26.000,1107.000,-9,26,1107,0,0
38729774,-15.000,25.000,1099.000,-15,25,1099,0,0
38730525,-9.000,33.000,1089.000,-9,33,1089,0,0
38731277,-16.000,17.000,1109.000,-16,17,1109,0,0
38732028,-20.000,31.000,1087.000,-20,31,1087,0,0
38732780,-12.000,31.000,1096.000,-12,31,1096,0,0
38733532,-16.000,21.000,1097.000,-16,21,1097,0,0
38734284,-9.000,40.000,1085.000,-9,40,1085,0,0
38735042,-10.000,25.000,1108.000,-10,25,1108,0,0
38735794,-10.000,22.000,1097.000,-10,22,1097,0,0
38736547,-6.000,32.000,1096.000,-6,32,1096,0,0
38737298,-8.000,16.000,1108.000,-8,16,1108,0,0
38738050,-10.000,31.000,1088.000,-10,31,1088,0,0
38738800,-8.000,27.000,1101.000,-8,27,1101,0,0
38739552,-15.000,17.000,1105.000,-15,17,1105,0,0
38740304,-12.000,35.000,1093.000,-12,35,1093,0,0
38741056,-8.000,25.000,1104.000,-8,25,1104,0,0
38741808,-11.000,27.000,1092.000,-11,27,1092,0,0
38742560,-2.000,36.000,1091.000,-2,36,1091,0,0
38743312,-8.000,20.000,1103.000,-8,20,1103,0,0
38744064,-14.000,37.000,1085.000,-14,37,1085,0,0
38744824,-8.000,29.000,1108.000,-8,29,1108,0,0
38745576,-15.000,21.000,1107.000,-15,21,1107,0,0
38746328,-11.000,35.000,1090.000,-11,35,1090,0,0
38747079,-13.000,22.000,1111.000,-13,22,1111,0,0
38747830,-15.000,24.000,1101.000,-15,24,1101,0,0
38748581,-1.000,34.000,1096.000,-1,34,1096,0,0
38749333,-7.000,17.000,1109.000,-7,17,1109,0,0
38750084,-5.000,34.000,1092.000,-5,34,1092,0,0
38750844,-1.000,27.000,1105.000,-1,27,1105,0,0
38751595,-8.000,18.000,1104.000,-8,18,1104,0,0
38752348,-7.000,34.000,1086.000,-7,34,1086,0,0
38753100,-11.000,18.000,1107.000,-11,18,1107,0,0
38753850,-14.000,21.000,1089.000,-14,21,1089,0,0
38754603,-8.000,29.000,1096.000,-8,29,1096,0,0
38755354,-11.000,18.000,1106.000,-11,18,1106,0,0
38756106,-12.000,34.000,1090.000,-12,34,1090,0,0
38756858,-4.000,32.000,1105.000,-4,32,1105,0,0
38757610,-12.000,25.000,1105.000,-12,25,1105,0,0
38758362,-7.000,38.000,1088.000,-7,38,1088,0,0
38759113,-8.000,22.000,1101.000,-8,22,1101,0,0
38759864,-15.000,28.000,1086.000,-15,28,1086,0,0
38760616,-4.000,32.000,1093.000,-4,32,1093,0,0
38761369,-13.000,19.000,1113.000,-13,19,1113,0,0
38762121,-9.000,34.000,1091.000,-9,34,1091,0,0
38762880,-5.000,25.000,1108.000,-5,25,1108,0,0
38763625,-13.000,19.000,1108.000,-13,19,1108,0,0
38764377,-7.000,34.000,1087.000,-7,34,1087,0,0
38765137,-7.000,19.000,1106.000,-7,19,1106,0,0
38765887,-10.000,27.000,1092.000,-10,27,1092,0,0
38766639,-2.000,31.000,1094.000,-2,31,1094,0,0
38767391,-13.000,16.000,1105.000,-13,16,1105,0,0
38768143,-13.000,31.000,1092.000,-13,31,1092,0,0
38768894,-4.000,26.000,1100.000,-4,26,1100,0,0
38769645,-9.000,21.000,1107.000,-9,21,1107,0,0
38770397,-3.000,29.000,1096.000,-3,29,1096,0,0
38771157,-7.000,17.000,1105.000,-7,17,1105,0,0
38771908,-8.000,27.000,1085.000,-8,27,1085,0,0
38772659,-7.000,33.000,1097.000,-7,33,1097,0,0
38773410,-11.000,17.000,1102.000,-11,17,1102,0,0
38774162,-10.000,30.000,1086.000,-10,30,1086,0,0
38774914,-4.000,22.000,1113.000,-4,22,1113,0,0
38775666,-13.000,18.000,1106.000,-13,18,1106,0,0
38776418,-4.000,32.000,1092.000,-4,32,1092,0,0
38777170,-11.000,20.000,1109.000,-11,20,1109,0,0
38777929,-12.000,31.000,1088.000,-12,31,1088,0,0
38778680,-6.000,36.000,1094.000,-6,36,1094,0,0
38779432,-11.000,19.000,1098.000,-11,19,1098,0,0
38780184,-9.000,37.000,1087.000,-9,37,1087,0,0
38780935,-7.000,32.000,1107.000,-7,32,1107,0,0
38781686,-12.000,26.000,1098.000,-12,26,1098,0,0
38782438,-7.000,35.000,1085.000,-7,35,1085,0,0
38783190,-5.000,21.000,1103.000,-5,21,1103,0,0
38783942,-11.000,31.000,1090.000,-11,31,1090,0,0
38784702,-4.000,35.000,1095.000,-4,35,1095,0,0
38785453,-15.000,20.000,1102.000,-15,20,1102,0,0
38786205,-12.000,32.000,1089.000,-12,32,1089,0,0
38786957,-8.000,21.000,1111.000,-8,21,1111,0,0
38787708,-16.000,20.000,1102.000,-16,20,1102,0,0
38788459,-12.000,33.000,1096.000,-12,33,1096,0,0
38789212,-10.000,22.000,1109.000,-10,22,1109,0,0
38789964,-10.000,33.000,1091.000,-10,33,1091,0,0
38790724,-5.000,31.000,1100.000,-5,31,1100,0,0
38791475,-10.000,21.000,1111.000,-10,21,1111,0,0
38792226,-10.000,34.000,1095.000,-10,34,1095,0,0
38792977,-6.000,26.000,1112.000,-6,26,1112,0,0
38793728,-12.000,23.000,1103.000,-12,23,1103,0,0
38794481,-6.000,33.000,1092.000,-6,33,1092,0,0
38795233,-10.000,18.000,1114.000,-10,18,1114,0,0
38795985,-8.000,26.000,1085.000,-8,26,1085,0,0
38796736,-1.000,26.000,1100.000,-1,26,1100,0,0
38797489,-13.000,17.000,1104.000,-13,17,1104,0,0
38798241,-8.000,32.000,1086.000,-8,32,1086,0,0
38798993,-4.000,23.000,1111.000,-4,23,1111,0,0
38799752,-15.000,24.000,1100.000,-15,24,1100,0,0
38800505,-9.000,34.000,1092.000,-9,34,1092,0,0
38801257,-11.000,22.000,1108.000,-11,22,1108,0,0
38802009,-9.000,35.000,1086.000,-9,35,1086,0,0
38802759,-5.000,29.000,1093.000,-5,29,1093,0,0
38803510,-13.000,15.000,1098.000,-13,15,1098,0,0
38804262,-10.000,39.000,1078.000,-10,39,1078,0,0
38805012,-12.000,28.000,1101.000,-12,28,1101,0,0
38805772,-15.000,28.000,1089.000,-15,28,1089,0,0
38806519,-4.000,37.000,1091.000,-4,37,1091,0,0
38807271,-6.000,23.000,1107.000,-6,23,1107,0,0
38808024,-10.000,33.000,1088.000,-10,33,1088,0,0
38808775,-4.000,26.000,1104.000,-4,26,1104,0,0
38809528,-12.000,19.000,1110.000,-12,19,1110,0,0
38810287,-8.000,33.000,1095.000,-8,33,1095,0,0
38811038,-13.000,24.000,1111.000,-13,24,1111,0,0
38811789,-17.000,25.000,1099.000,-17,25,1099,0,0
38812539,-10.000,33.000,1096.000,-10,33,1096,0,0
38813291,-13.000,18.000,1106.000,-13,18,1106,0,0
38814042,-13.000,35.000,1087.000,-13,35,1087,0,0
38814800,-5.000,34.000,1092.000,-5,34,1092,0,0
38815552,-13.000,21.000,1094.000,-13,21,1094,0,0
38816304,-7.000,32.000,1083.000,-7,32,1083,0,0
38817056,-4.000,17.000,1099.000,-4,17,1099,0,0
38817808,-14.000,18.000,1083.000,-14,18,1083,0,0
38818560,-6.000,29.000,1086.000,-6,29,1086,0,0
38819313,-14.000,17.000,1106.000,-14,17,1106,0,0
38820065,-9.000,30.000,1090.000,-9,30,1090,0,0
38820816,-5.000,27.000,1100.000,-5,27,1100,0,0
38821568,-14.000,19.000,1100.000,-14,19,1100,0,0
38822319,-8.000,37.000,1085.000,-8,37,1085,0,0
38823071,-10.000,23.000,1106.000,-10,23,1106,0,0
38823822,-11.000,24.000,1090.000,-11,24,1090,0,0
38824582,-1.000,32.000,1085.000,-1,32,1085,0,0
38825333,-8.000,18.000,1106.000,-8,18,1106,0,0
38826084,-8.000,34.000,1087.000,-8,34,1087,0,0
38826834,-5.000,30.000,1107.000,-5,30,1107,0,0
38827587,-9.000,23.000,1104.000,-9,23,1104,0,0
38828338,-5.000,38.000,1088.000,-5,38,1088,0,0
38829089,-6.000,24.000,1105.000,-6,24,1105,0,0
38829841,-10.000,26.000,1091.000,-10,26,1091,0,0
38830593,-4.000,31.000,1088.000,-4,31,1088,0,0
38831345,-9.000,19.000,1102.000,-9,19,1102,0,0
38832105,-9.000,33.000,1090.000,-9,33,1090,0,0
38832857,-7.000,29.000,1099.000,-7,29,1099,0,0
38833609,-14.000,25.000,1104.000,-14,25,1104,0,0
38834360,-10.000,38.000,1086.000,-10,38,1086,0,0
38835112,-13.000,19.000,1111.000,-13,19,1111,0,0
38835864,-18.000,27.000,1095.000,-18,27,1095,0,0
38836616,-7.000,32.000,1084.000,-7,32,1084,0,0
38837367,-12.000,16.000,1102.000,-12,16,1102,0,0
38838120,-10.000,30.000,1084.000,-10,30,1084,0,0
38838878,-7.000,26.000,1101.000,-7,26,1101,0,0
38839629,-15.000,20.000,1094.000,-15,20,1094,0,0
38840381,-5.000,34.000,1083.000,-5,34,1083,0,0
38841133,-7.000,17.000,1106.000,-7,17,1106,0,0
38841884,-12.000,25.000,1092.000,-12,25,1092,0,0
38842636,-6.000,33.000,1095.000,-6,33,1095,0,0
38843388,-10.000,19.000,1101.000,-10,19,1101,0,0
38844141,-8.000,37.000,1083.000,-8,37,1083,0,0
38844892,-8.000,28.000,1101.000,-8,28,1101,0,0
38845644,-14.000,20.000,1102.000,-14,20,1102,0,0
38846404,-10.000,34.000,1092.000,-10,34,1092,0,0
38847157,-9.000,18.000,1105.000,-9,18,1105,0,0
38847908,-4.000,28.000,1087.000,-4,28,1087,0,0
38848659,-10.000,32.000,1099.000,-10,32,1099,0,0
38849410,-14.000,17.000,1106.000,-14,17,1106,0,0
38850162,-10.000,35.000,1091.000,-10,35,1091,0,0
38850913,-5.000,30.000,1109.000,-5,30,1109,0,0
38851672,-12.000,22.000,1095.000,-12,22,1095,0,0
38852425,-7.000,38.000,1084.000,-7,38,1084,0,0
38853176,-5.000,22.000,1106.000,-5,22,1106,0,0
38853928,-12.000,32.000,1089.000,-12,32,1089,0,0
38854680,-4.000,35.000,1100.000,-4,35,1100,0,0
38855431,-14.000,21.000,1103.000,-14,21,1103,0,0
38856184,-12.000,37.000,1091.000,-12,37,1091,0,0
38856935,-10.000,26.000,1106.000,-10,26,1106,0,0
38857695,-18.000,25.000,1094.000,-18,25,1094,0,0
38858446,-8.000,37.000,1089.000,-8,37,1089,0,0
38859197,-10.000,22.000,1108.000,-10,22,1108,0,0
38859950,-10.000,29.000,1095.000,-10,29,1095,0,0
38860700,-6.000,32.000,1098.000,-6,32,1098,0,0
38861452,-12.000,16.000,1104.000,-12,16,1104,0,0
38862204,-6.000,31.000,1085.000,-6,31,1085,0,0
38862956,-4.000,20.000,1096.000,-4,20,1096,0,0
38863716,-12.000,24.000,1098.000,-12,24,1098,0,0
38864467,-6.000,35.000,1089.000,-6,35,1089,0,0
38865220,-6.000,24.000,1102.000,-6,24,1102,0,0
38865971,-6.000,37.000,1089.000,-6,37,1089,0,0
38866723,-3.000,35.000,1095.000,-3,35,1095,0,0
38867475,-8.000,24.000,1098.000,-8,24,1098,0,0
38868226,-7.000,36.000,1085.000,-7,36,1085,0,0
38868978,-5.000,24.000,1104.000,-5,24,1104,0,0
38869738,-9.000,19.000,1086.000,-9,19,1086,0,0
38870489,-4.000,33.000,1088.000,-4,33,1088,0,0
38871242,-10.000,18.000,1106.000,-10,18,1106,0,0
38871993,-11.000,32.000,1086.000,-11,32,1086,0,0
38872745,-7.000,32.000,1095.000,-7,32,1095,0,0
38873497,-12.000,23.000,1099.000,-12,23,1099,0,0
38874249,-7.000,37.000,1081.000,-7,37,1081,0,0
38875001,-3.000,26.000,1105.000,-3,26,1105,0,0
38875753,-8.000,26.000,1091.000,-8,26,1091,0,0
38876505,-5.000,36.000,1088.000,-5,36,1088,0,0
38877257,-12.000,18.000,1112.000,-12,18,1112,0,0
38878009,-12.000,33.000,1090.000,-12,33,1090,0,0
38878768,-3.000,28.000,1101.000,-3,28,1101,0,0
38879519,-11.000,15.000,1105.000,-11,15,1105,0,0
38880271,-9.000,34.000,1091.000,-9,34,1091,0,0
38881023,-7.000,25.000,1100.000,-7,25,1100,0,0
38881773,-11.000,30.000,1095.000,-11,30,1095,0,0
38882532,-4.000,39.000,1096.000,-4,39,1096,0,0
38883284,-9.000,22.000,1103.000,-9,22,1103,0,0
38884034,-5.000,32.000,1088.000,-5,32,1088,0,0
38884784,0.000,29.000,1099.000,0,29,1099,0,0
38885536,-6.000,17.000,1099.000,-6,17,1099,0,0
38886288,-6.000,32.000,1086.000,-6,32,1086,0,0
38887041,-8.000,22.000,1102.000,-8,22,1102,0,0
38887792,-12.000,20.000,1095.000,-12,20,1095,0,0
38888545,-6.000,27.000,1096.000,-6,27,1096,0,0
38889297,-11.000,14.000,1108.000,-11,14,1108,0,0
38890049,-13.000,30.000,1092.000,-13,30,1092,0,0
38890808,-8.000,25.000,1102.000,-8,25,1102,0,0
38891560,-14.000,17.000,1104.000,-14,17,1104,0,0
38892312,-10.000,37.000,1089.000,-10,37,1089,0,0
38893063,-9.000,24.000,1108.000,-9,24,1108,0,0
38893815,-14.000,24.000,1095.000,-14,24,1095,0,0
38894567,-7.000,33.000,1087.000,-7,33,1087,0,0
38895326,-12.000,19.000,1109.000,-12,19,1109,0,0
38896078,-10.000,33.000,1085.000,-10,33,1085,0,0
38896829,-6.000,29.000,1107.000,-6,29,1107,0,0
38897580,-11.000,19.000,1106.000,-11,19,1106,0,0
38898332,-6.000,31.000,1087.000,-6,31,1087,0,0
38899084,-7.000,22.000,1108.000,-7,22,1108,0,0
38899834,-11.000,26.000,1093.000,-11,26,1093,0,0
38900587,-3.000,34.000,1088.000,-3,34,1088,0,0
38901339,-12.000,16.000,1102.000,-12,16,1102,0,0
38902097,-10.000,31.000,1092.000,-10,31,1092,0,0
38902849,-7.000,32.000,1108.000,-7,32,1108,0,0
38903601,-9.000,20.000,1106.000,-9,20,1106,0,0
38904353,-4.000,34.000,1097.000,-4,34,1097,0,0
38905104,-6.000,25.000,1112.000,-6,25,1112,0,0
38905856,-9.000,29.000,1100.000,-9,29,1100,0,0
38906608,-6.000,30.000,1100.000,-6,30,1100,0,0
38907360,-11.000,19.000,1110.000,-11,19,1110,0,0
38908121,-1.000,34.000,1090.000,-1,34,1090,0,0
38908872,1.000,31.000,1097.000,1,31,1097,0,0
38909625,-9.000,24.000,1090.000,-9,24,1090,0,0
38910377,-5.000,36.000,1085.000,-5,36,1085,0,0
38911129,-11.000,19.000,1105.000,-11,19,1105,0,0
38911880,-13.000,24.000,1099.000,-13,24,1099,0,0
38912632,-6.000,29.000,1098.000,-6,29,1098,0,0
38913385,-12.000,17.000,1112.000,-12,17,1112,0,0
38914137,-8.000,34.000,1085.000,-8,34,1085,0,0
38914888,-7.000,30.000,1093.000,-7,30,1093,0,0
38915639,-16.000,28.000,1096.000,-16,28,1096,0,0
38916392,-10.000,35.000,1086.000,-10,35,1086,0,0
38917151,-8.000,18.000,1106.000,-8,18,1106,0,0
38917903,-14.000,30.000,1096.000,-14,30,1096,0,0
38918653,-6.000,31.000,1088.000,-6,31,1088,0,0
38919406,-10.000,20.000,1099.000,-10,20,1099,0,0
38920157,-5.000,35.000,1085.000,-5,35,1085,0,0
38920910,-7.000,30.000,1102.000,-7,30,1102,0,0
38921661,-10.000,24.000,1092.000,-10,24,1092,0,0
38922413,-4.000,37.000,1083.000,-4,37,1083,0,0
38923165,-7.000,22.000,1100.000,-7,22,1100,0,0
38923917,-15.000,27.000,1082.000,-15,27,1082,0,0
38924668,-13.000,27.000,1095.000,-13,27,1095,0,0
38925426,-17.000,16.000,1098.000,-17,16,1098,0,0
38926178,-8.000,37.000,1093.000,-8,37,1093,0,0
38926929,-7.000,28.000,1111.000,-7,28,1111,0,0
38927681,-16.000,27.000,1103.000,-16,27,1103,0,0
38928433,-10.000,40.000,1097.000,-10,40,1097,0,0
38929185,-9.000,23.000,1113.000,-9,23,1113,0,0
38929937,-9.000,29.000,1093.000,-9,29,1093,0,0
38930688,-5.000,28.000,1098.000,-5,28,1098,0,0
38931440,-9.000,15.000,1106.000,-9,15,1106,0,0
38932192,-12.000,29.000,1094.000,-12,29,1094,0,0
38932951,-9.000,24.000,1106.000,-9,24,1106,0,0
38933703,-15.000,27.000,1102.000,-15,27,1102,0,0
38934454,-3.000,35.000,1094.000,-3,35,1094,0,0
38935206,-7.000,18.000,1106.000,-7,18,1106,0,0
38935958,-10.000,30.000,1088.000,-10,30,1088,0,0
38936709,-8.000,32.000,1090.000,-8,32,1090,0,0
38937460,-14.000,19.000,1098.000,-14,19,1098,0,0
38938218,-14.000,34.000,1087.000,-14,34,1087,0,0
38938970,-10.000,21.000,1108.000,-10,21,1108,0,0
38939721,-12.000,23.000,1099.000,-12,23,1099,0,0
38940473,1.000,34.000,1096.000,1,34,1096,0,0
38941225,-9.000,19.000,1107.000,-9,19,1107,0,0
38941976,-7.000,27.000,1089.000,-7,27,1089,0,0
38942728,-2.000,29.000,1098.000,-2,29,1098,0,0
38943487,-7.000,17.000,1106.000,-7,17,1106,0,0
38944238,-5.000,34.000,1090.000,-5,34,1090,0,0
38944990,-5.000,24.000,1110.000,-5,24,1110,0,0
38945741,-10.000,21.000,1097.000,-10,21,1097,0,0
38946494,-4.000,31.000,1091.000,-4,31,1091,0,0
38947245,-7.000,16.000,1103.000,-7,16,1103,0,0
38947996,-11.000,28.000,1096.000,-11,28,1096,0,0
38948748,-5.000,29.000,1104.000,-5,29,1104,0,0
38949500,-12.000,18.000,1105.000,-12,18,1105,0,0
38950252,-7.000,36.000,1089.000,-7,36,1089,0,0
38951004,-2.000,25.000,1115.000,-2,25,1115,0,0
38951764,-8.000,24.000,1097.000,-8,24,1097,0,0
38952516,-5.000,32.000,1091.000,-5,32,1091,0,0
38953267,-12.000,17.000,1102.000,-12,17,1102,0,0
38954018,-11.000,30.000,1088.000,-11,30,1088,0,0
38954768,-9.000,26.000,1101.000,-9,26,1101,0,0
38955520,-11.000,15.000,1106.000,-11,15,1106,0,0
38956279,-8.000,35.000,1084.000,-8,35,1084,0,0
38957031,-9.000,26.000,1105.000,-9,26,1105,0,0
38957783,-16.000,24.000,1091.000,-16,24,1091,0,0
38958534,-8.000,33.000,1086.000,-8,33,1086,0,0
38959285,-11.000,15.000,1100.000,-11,15,1100,0,0
38960037,-9.000,30.000,1085.000,-9,30,1085,0,0
38960788,-4.000,28.000,1098.000,-4,28,1098,0,0
38961540,-6.000,20.000,1097.000,-6,20,1097,0,0
38962292,-6.000,37.000,1077.000,-6,37,1077,0,0
38963051,-7.000,23.000,1107.000,-7,23,1107,0,0
38963801,-8.000,26.000,1091.000,-8,26,1091,0,0
38964553,0.000,34.000,1095.000,0,34,1095,0,0
38965304,-7.000,17.000,1101.000,-7,17,1101,0,0
38966056,-7.000,33.000,1083.000,-7,33,1083,0,0
38966808,-7.000,32.000,1099.000,-7,32,1099,0,0
38967560,-15.000,20.000,1100.000,-15,20,1100,0,0
38968311,-6.000,33.000,1085.000,-6,33,1085,0,0
38969063,-6.000,22.000,1107.000,-6,22,1107,0,0
38969815,-12.000,23.000,1098.000,-12,23,1098,0,0
38970567,-12.000,28.000,1096.000,-12,28,1096,0,0
38971326,-11.000,19.000,1102.000,-11,19,1102,0,0
38972079,-11.000,34.000,1086.000,-11,34,1086,0,0
38972830,-8.000,28.000,1099.000,-8,28,1099,0,0
38973582,-12.000,19.000,1103.000,-12,19,1103,0,0
38974333,-6.000,32.000,1090.000,-6,32,1090,0,0
38975085,-6.000,18.000,1111.000,-6,18,1111,0,0
38975835,-16.000,24.000,1100.000,-16,24,1100,0,0
38976595,-13.000,31.000,1098.000,-13,31,1098,0,0
38977347,-11.000,15.000,1108.000,-11,15,1108,0,0
38978098,-6.000,28.000,1091.000,-6,28,1091,0,0
38978850,-7.000,29.000,1106.000,-7,29,1106,0,0
38979601,-12.000,22.000,1104.000,-12,22,1104,0,0
38980354,-5.000,39.000,1090.000,-5,39,1090,0,0
38981104,-2.000,27.000,1103.000,-2,27,1103,0,0
38981864,-7.000,29.000,1095.000,-7,29,1095,0,0
38982616,-3.000,36.000,1091.000,-3,36,1091,0,0
38983369,-10.000,20.000,1105.000,-10,20,1105,0,0
38984121,-12.000,33.000,1084.000,-12,33,1084,0,0
38984872,-6.000,26.000,1092.000,-6,26,1092,0,0
38985625,-11.000,20.000,1096.000,-11,20,1096,0,0
38986377,-3.000,34.000,1088.000,-3,34,1088,0,0
38987129,-8.000,20.000,1105.000,-8,20,1105,0,0
38987880,-9.000,26.000,1089.000,-9,26,1089,0,0
38988633,-3.000,30.000,1092.000,-3,30,1092,0,0
38989386,-8.000,16.000,1105.000,-8,16,1105,0,0
38990138,-7.000,36.000,1086.000,-7,36,1086,0,0
38990890,-3.000,27.000,1098.000,-3,27,1098,0,0
38991641,-11.000,22.000,1103.000,-11,22,1103,0,0
38992394,-1.000,37.000,1097.000,-1,37,1097,0,0
38993146,-7.000,23.000,1114.000,-7,23,1114,0,0
38993896,-14.000,28.000,1094.000,-14,28,1094,0,0
38994648,-8.000,26.000,1094.000,-8,26,1094,0,0
38995401,-16.000,16.000,1096.000,-16,16,1096,0,0
38996159,-12.000,33.000,1085.000,-12,33,1085,0,0
38996910,-6.000,27.000,1100.000,-6,27,1100,0,0
38997662,-8.000,20.000,1096.000,-8,20,1096,0,0
38998414,-5.000,35.000,1093.000,-5,35,1093,0,0
38999166,-5.000,20.000,1114.000,-5,20,1114,0,0
38999918,-10.000,28.000,1094.000,-10,28,1094,0,0
39000669,-3.000,32.000,1099.000,-3,32,1099,0,0
39001420,-9.000,18.000,1104.000,-9,18,1104,0,0
39002179,-3.000,35.000,1085.000,-3,35,1085,0,0
39002931,-3.000,30.000,1107.000,-3,30,1107,0,0
39003683,-9.000,25.000,1098.000,-9,25,1098,0,0
39004435,-2.000,35.000,1090.000,-2,35,1090,0,0
39005187,-6.000,23.000,1107.000,-6,23,1107,0,0
39005938,-8.000,34.000,1087.000,-8,34,1087,0,0
39006690,-6.000,36.000,1094.000,-6,36,1094,0,0
39007442,-16.000,19.000,1101.000,-16,19,1101,0,0
39008193,-12.000,34.000,1086.000,-12,34,1086,0,0
39008953,-3.000,28.000,1102.000,-3,28,1102,0,0
39009704,-12.000,25.000,1104.000,-12,25,1104,0,0
39010456,-4.000,33.000,1095.000,-4,33,1095,0,0
39011208,-7.000,21.000,1113.000,-7,21,1113,0,0
39011961,-7.000,32.000,1095.000,-7,32,1095,0,0
39012712,-4.000,33.000,1095.000,-4,33,1095,0,0
39013463,-10.000,20.000,1107.000,-10,20,1107,0,0
39014215,-7.000,39.000,1084.000,-7,39,1084,0,0
39014975,-5.000,31.000,1106.000,-5,31,1106,0,0
39015726,-9.000,25.000,1097.000,-9,25,1097,0,0
39016478,-7.000,31.000,1088.000,-7,31,1088,0,0
39017229,-10.000,16.000,1103.000,-10,16,1103,0,0
39017981,-9.000,30.000,1085.000,-9,30,1085,0,0
39018733,-2.000,32.000,1098.000,-2,32,1098,0,0
39019483,-13.000,23.000,1097.000,-13,23,1097,0,0
39020235,-7.000,38.000,1088.000,-7,38,1088,0,0
39020994,-7.000,26.000,1100.000,-7,26,1100,0,0
39021745,-11.000,26.000,1088.000,-11,26,1088,0,0
39022498,-4.000,37.000,1092.000,-4,37,1092,0,0
39023250,-6.000,22.000,1105.000,-6,22,1105,0,0
39024002,-6.000,32.000,1090.000,-6,32,1090,0,0
39024754,-8.000,28.000,1098.000,-8,28,1098,0,0
39025506,-13.000,16.000,1104.000,-13,16,1104,0,0
39026258,-11.000,34.000,1087.000,-11,34,1087,0,0
39027010,-6.000,21.000,1115.000,-6,21,1115,0,0
39027762,-15.000,25.000,1104.000,-15,25,1104,0,0
39028514,-9.000,35.000,1093.000,-9,35,1093,0,0
39029266,-13.000,17.000,1110.000,-13,17,1110,0,0
39030018,-11.000,32.000,1084.000,-11,32,1084,0,0
39030770,-9.000,32.000,1098.000,-9,32,1098,0,0
39031522,-13.000,20.000,1107.000,-13,20,1107,0,0
39032274,-10.000,33.000,1088.000,-10,33,1088,0,0
39033026,-11.000,26.000,1109.000,-11,26,1109,0,0
39033784,-16.000,27.000,1091.000,-16,27,1091,0,0
39034536,-7.000,36.000,1088.000,-7,36,1088,0,0
39035288,-10.000,22.000,1100.000,-10,22,1100,0,0
39036041,-10.000,31.000,1081.000,-10,31,1081,0,0
39036792,-5.000,27.000,1090.000,-5,27,1090,0,0
39037545,-10.000,17.000,1099.000,-10,17,1099,0,0
39038297,-5.000,34.000,1094.000,-5,34,1094,0,0
39039050,-6.000,24.000,1111.000,-6,24,1111,0,0
39039801,-14.000,25.000,1093.000,-14,25,1093,0,0
39040553,-8.000,30.000,1092.000,-8,30,1092,0,0
39041305,-9.000,14.000,1111.000,-9,14,1111,0,0
39042058,-8.000,35.000,1094.000,-8,35,1094,0,0
39042809,-5.000,29.000,1110.000,-5,29,1110,0,0
39043561,-8.000,16.000,1105.000,-8,16,1105,0,0
39044313,-5.000,32.000,1081.000,-5,32,1081,0,0
39045066,-5.000,17.000,1104.000,-5,17,1104,0,0
39045817,-12.000,23.000,1091.000,-12,23,1091,0,0
39046569,-7.000,34.000,1095.000,-7,34,1095,0,0
39047330,-12.000,19.000,1111.000,-12,19,1111,0,0
39048082,-15.000,31.000,1091.000,-15,31,1091,0,0
39048834,-13.000,30.000,1102.000,-13,30,1102,0,0
39049585,-17.000,23.000,1095.000,-17,23,1095,0,0
39050338,-11.000,35.000,1083.000,-11,35,1083,0,0
